#Wavelength cs_H2 Dcs_H2 (angstrom cm2 cm2)0
2275    0       0
2225    0       0
2175    0       0
2125    0       0
2075    0       0
2025    0       0
1975    0       0
1925    0       0
1875    0       0
1825    0       0
1775    0       0
1725    0       0
1675    0       0
1625    0       0
1575    0       0
1525    0       0
1475    0       0
1425    0       0
1375    0       0
1325    0       0
1275    0       0
1225    0       0
1215.7  0       0
1175    0       0
1125    0       0
1075    0       0
1031.9  0       0
1025.7  0       0
1025    0       0
999.99  0       0
999.96  0       0
999.93  0       0
999.9   0       0
999.87  0       0
999.84  0       0
999.81  0       0
999.78  0       0
999.75  0       0
999.72  0       0
999.69  0       0
999.66  0       0
999.63  0       0
999.6   0       0
999.57  0       0
999.54  0       0
999.51  0       0
999.48  0       0
999.45  0       0
999.42  0       0
999.39  0       0
999.36  0       0
999.33  0       0
999.3   0       0
999.27  0       0
999.24  0       0
999.21  0       0
999.18  0       0
999.15  0       0
999.12  0       0
999.09  0       0
999.06  0       0
999.03  0       0
999     0       0
998.97  0       0
998.94  0       0
998.91  0       0
998.88  0       0
998.85  0       0
998.82  0       0
998.79  0       0
998.76  0       0
998.73  0       0
998.7   0       0
998.67  0       0
998.64  0       0
998.61  0       0
998.58  0       0
998.55  0       0
998.52  0       0
998.49  0       0
998.46  0       0
998.43  0       0
998.4   0       0
998.37  0       0
998.34  0       0
998.31  0       0
998.28  0       0
998.25  0       0
998.22  0       0
998.19  0       0
998.16  0       0
998.13  0       0
998.1   0       0
998.07  0       0
998.04  0       0
998.01  0       0
997.98  0       0
997.95  0       0
997.92  0       0
997.89  0       0
997.86  0       0
997.83  0       0
997.8   0       0
997.77  0       0
997.74  0       0
997.71  0       0
997.68  0       0
997.65  0       0
997.62  0       0
997.59  0       0
997.56  0       0
997.53  0       0
997.5   0       0
997.47  0       0
997.44  0       0
997.41  0       0
997.38  0       0
997.35  0       0
997.32  0       0
997.29  0       0
997.26  0       0
997.23  0       0
997.2   0       0
997.17  0       0
997.14  0       0
997.11  0       0
997.08  0       0
997.05  0       0
997.02  0       0
996.99  0       0
996.96  0       0
996.93  0       0
996.9   0       0
996.87  0       0
996.84  0       0
996.81  0       0
996.78  0       0
996.75  0       0
996.72  0       0
996.69  0       0
996.66  0       0
996.63  0       0
996.6   0       0
996.57  0       0
996.54  0       0
996.51  0       0
996.48  0       0
996.45  0       0
996.42  0       0
996.39  0       0
996.36  0       0
996.33  0       0
996.3   0       0
996.27  0       0
996.24  0       0
996.21  0       0
996.18  0       0
996.15  0       0
996.12  0       0
996.09  0       0
996.06  0       0
996.03  0       0
996     0       0
995.97  0       0
995.94  0       0
995.91  0       0
995.88  0       0
995.85  0       0
995.82  0       0
995.79  0       0
995.76  0       0
995.73  0       0
995.7   0       0
995.67  0       0
995.64  0       0
995.61  0       0
995.58  0       0
995.55  0       0
995.52  0       0
995.49  0       0
995.46  0       0
995.43  0       0
995.4   0       0
995.37  0       0
995.34  0       0
995.31  0       0
995.28  0       0
995.25  0       0
995.22  0       0
995.19  0       0
995.16  0       0
995.13  0       0
995.1   0       0
995.07  0       0
995.04  0       0
995.01  0       0
994.98  0       0
994.95  0       0
994.92  0       0
994.89  0       0
994.86  0       0
994.83  0       0
994.8   0       0
994.77  0       0
994.74  0       0
994.71  0       0
994.68  0       0
994.65  0       0
994.62  0       0
994.59  0       0
994.56  0       0
994.53  0       0
994.5   0       0
994.47  0       0
994.44  0       0
994.41  0       0
994.38  0       0
994.35  0       0
994.32  0       0
994.29  0       0
994.26  0       0
994.23  0       0
994.2   0       0
994.17  0       0
994.14  0       0
994.11  0       0
994.08  0       0
994.05  0       0
994.02  0       0
993.99  0       0
993.96  0       0
993.93  0       0
993.9   0       0
993.87  0       0
993.84  0       0
993.81  0       0
993.78  0       0
993.75  0       0
993.72  0       0
993.69  0       0
993.66  0       0
993.63  0       0
993.6   0       0
993.57  0       0
993.54  0       0
993.51  0       0
993.48  0       0
993.45  0       0
993.42  0       0
993.39  0       0
993.36  0       0
993.33  0       0
993.3   0       0
993.27  0       0
993.24  0       0
993.21  0       0
993.18  0       0
993.15  0       0
993.12  0       0
993.09  0       0
993.06  0       0
993.03  0       0
993     0       0
992.97  0       0
992.94  0       0
992.91  0       0
992.88  0       0
992.85  0       0
992.82  0       0
992.79  0       0
992.76  0       0
992.73  0       0
992.7   0       0
992.67  0       0
992.64  0       0
992.61  0       0
992.58  0       0
992.55  0       0
992.52  0       0
992.49  0       0
992.46  0       0
992.43  0       0
992.4   0       0
992.37  0       0
992.34  0       0
992.31  0       0
992.28  0       0
992.25  0       0
992.22  0       0
992.19  0       0
992.16  0       0
992.13  0       0
992.1   0       0
992.07  0       0
992.04  0       0
992.01  0       0
991.98  0       0
991.95  0       0
991.92  0       0
991.89  0       0
991.86  0       0
991.83  0       0
991.8   0       0
991.77  0       0
991.74  0       0
991.71  0       0
991.68  0       0
991.65  0       0
991.62  0       0
991.59  0       0
991.56  0       0
991.53  0       0
991.5   0       0
991.47  0       0
991.44  0       0
991.41  0       0
991.38  0       0
991.35  0       0
991.32  0       0
991.29  0       0
991.26  0       0
991.23  0       0
991.2   0       0
991.17  0       0
991.14  0       0
991.11  0       0
991.08  0       0
991.05  0       0
991.02  0       0
990.99  0       0
990.96  0       0
990.93  0       0
990.9   0       0
990.87  0       0
990.84  0       0
990.81  0       0
990.78  0       0
990.75  0       0
990.72  0       0
990.69  0       0
990.66  0       0
990.63  0       0
990.6   0       0
990.57  0       0
990.54  0       0
990.51  0       0
990.48  0       0
990.45  0       0
990.42  0       0
990.39  0       0
990.36  0       0
990.33  0       0
990.3   0       0
990.27  0       0
990.24  0       0
990.21  0       0
990.18  0       0
990.15  0       0
990.12  0       0
990.09  0       0
990.06  0       0
990.03  0       0
990     0       0
989.97  0       0
989.94  0       0
989.91  0       0
989.88  0       0
989.85  0       0
989.82  0       0
989.79  0       0
989.76  0       0
989.73  0       0
989.7   0       0
989.67  0       0
989.64  0       0
989.61  0       0
989.58  0       0
989.55  0       0
989.52  0       0
989.49  0       0
989.46  0       0
989.43  0       0
989.4   0       0
989.37  0       0
989.34  0       0
989.31  0       0
989.28  0       0
989.25  0       0
989.22  0       0
989.19  0       0
989.16  0       0
989.13  0       0
989.1   0       0
989.07  0       0
989.04  0       0
989.01  0       0
988.98  0       0
988.95  0       0
988.92  0       0
988.89  0       0
988.86  0       0
988.83  0       0
988.8   0       0
988.77  0       0
988.74  0       0
988.71  0       0
988.68  0       0
988.65  0       0
988.62  0       0
988.59  0       0
988.56  0       0
988.53  0       0
988.5   0       0
988.47  0       0
988.44  0       0
988.41  0       0
988.38  0       0
988.35  0       0
988.32  0       0
988.29  0       0
988.26  0       0
988.23  0       0
988.2   0       0
988.17  0       0
988.14  0       0
988.11  0       0
988.08  0       0
988.05  0       0
988.02  0       0
987.99  0       0
987.96  0       0
987.93  0       0
987.9   0       0
987.87  0       0
987.84  0       0
987.81  0       0
987.78  0       0
987.75  0       0
987.72  0       0
987.69  0       0
987.66  0       0
987.63  0       0
987.6   0       0
987.57  0       0
987.54  0       0
987.51  0       0
987.48  0       0
987.45  0       0
987.42  0       0
987.39  0       0
987.36  0       0
987.33  0       0
987.3   0       0
987.27  0       0
987.24  0       0
987.21  0       0
987.18  0       0
987.15  0       0
987.12  0       0
987.09  0       0
987.06  0       0
987.03  0       0
987     0       0
986.97  0       0
986.94  0       0
986.91  0       0
986.88  0       0
986.85  0       0
986.82  0       0
986.79  0       0
986.76  0       0
986.73  0       0
986.7   0       0
986.67  0       0
986.64  0       0
986.61  0       0
986.58  0       0
986.55  0       0
986.52  0       0
986.49  0       0
986.46  0       0
986.43  0       0
986.4   0       0
986.37  0       0
986.34  0       0
986.31  0       0
986.28  0       0
986.25  0       0
986.22  0       0
986.19  0       0
986.16  0       0
986.13  0       0
986.1   0       0
986.07  0       0
986.04  0       0
986.01  0       0
985.98  0       0
985.95  0       0
985.92  0       0
985.89  0       0
985.86  0       0
985.83  0       0
985.8   0       0
985.77  0       0
985.74  0       0
985.71  0       0
985.68  0       0
985.65  0       0
985.62  0       0
985.59  0       0
985.56  0       0
985.53  0       0
985.5   0       0
985.47  0       0
985.44  0       0
985.41  0       0
985.38  0       0
985.35  0       0
985.32  0       0
985.29  0       0
985.26  0       0
985.23  0       0
985.2   0       0
985.17  0       0
985.14  0       0
985.11  0       0
985.08  0       0
985.05  0       0
985.02  0       0
984.99  0       0
984.96  0       0
984.93  0       0
984.9   0       0
984.87  0       0
984.84  0       0
984.81  0       0
984.78  0       0
984.75  0       0
984.72  0       0
984.69  0       0
984.66  0       0
984.63  0       0
984.6   0       0
984.57  0       0
984.54  0       0
984.51  0       0
984.48  0       0
984.45  0       0
984.42  0       0
984.39  0       0
984.36  0       0
984.33  0       0
984.3   0       0
984.27  0       0
984.24  0       0
984.21  0       0
984.18  0       0
984.15  0       0
984.12  0       0
984.09  0       0
984.06  0       0
984.03  0       0
984     0       0
983.97  0       0
983.94  0       0
983.91  0       0
983.88  0       0
983.85  0       0
983.82  0       0
983.79  0       0
983.76  0       0
983.73  0       0
983.7   0       0
983.67  0       0
983.64  0       0
983.61  0       0
983.58  0       0
983.55  0       0
983.52  0       0
983.49  0       0
983.46  0       0
983.43  0       0
983.4   0       0
983.37  0       0
983.34  0       0
983.31  0       0
983.28  0       0
983.25  0       0
983.22  0       0
983.19  0       0
983.16  0       0
983.13  0       0
983.1   0       0
983.07  0       0
983.04  0       0
983.01  0       0
982.98  0       0
982.95  0       0
982.92  0       0
982.89  0       0
982.86  0       0
982.83  0       0
982.8   0       0
982.77  0       0
982.74  0       0
982.71  0       0
982.68  0       0
982.65  0       0
982.62  0       0
982.59  0       0
982.56  0       0
982.53  0       0
982.5   0       0
982.47  0       0
982.44  0       0
982.41  0       0
982.38  0       0
982.35  0       0
982.32  0       0
982.29  0       0
982.26  0       0
982.23  0       0
982.2   0       0
982.17  0       0
982.14  0       0
982.11  0       0
982.08  0       0
982.05  0       0
982.02  0       0
981.99  0       0
981.96  0       0
981.93  0       0
981.9   0       0
981.87  0       0
981.84  0       0
981.81  0       0
981.78  0       0
981.75  0       0
981.72  0       0
981.69  0       0
981.66  0       0
981.63  0       0
981.6   0       0
981.57  0       0
981.54  0       0
981.51  0       0
981.48  0       0
981.45  0       0
981.42  0       0
981.39  0       0
981.36  0       0
981.33  0       0
981.3   0       0
981.27  0       0
981.24  0       0
981.21  0       0
981.18  0       0
981.15  0       0
981.12  0       0
981.09  0       0
981.06  0       0
981.03  0       0
981     0       0
980.97  0       0
980.94  0       0
980.91  0       0
980.88  0       0
980.85  0       0
980.82  0       0
980.79  0       0
980.76  0       0
980.73  0       0
980.7   0       0
980.67  0       0
980.64  0       0
980.61  0       0
980.58  0       0
980.55  0       0
980.52  0       0
980.49  0       0
980.46  0       0
980.43  0       0
980.4   0       0
980.37  0       0
980.34  0       0
980.31  0       0
980.28  0       0
980.25  0       0
980.22  0       0
980.19  0       0
980.16  0       0
980.13  0       0
980.1   0       0
980.07  0       0
980.04  0       0
980.01  0       0
979.98  0       0
979.95  0       0
979.92  0       0
979.89  0       0
979.86  0       0
979.83  0       0
979.8   0       0
979.77  0       0
979.74  0       0
979.71  0       0
979.68  0       0
979.65  0       0
979.62  0       0
979.59  0       0
979.56  0       0
979.53  0       0
979.5   0       0
979.47  0       0
979.44  0       0
979.41  0       0
979.38  0       0
979.35  0       0
979.32  0       0
979.29  0       0
979.26  0       0
979.23  0       0
979.2   0       0
979.17  0       0
979.14  0       0
979.11  0       0
979.08  0       0
979.05  0       0
979.02  0       0
978.99  0       0
978.96  0       0
978.93  0       0
978.9   0       0
978.87  0       0
978.84  0       0
978.81  0       0
978.78  0       0
978.75  0       0
978.72  0       0
978.69  0       0
978.66  0       0
978.63  0       0
978.6   0       0
978.57  0       0
978.54  0       0
978.51  0       0
978.48  0       0
978.45  0       0
978.42  0       0
978.39  0       0
978.36  0       0
978.33  0       0
978.3   0       0
978.27  0       0
978.24  0       0
978.21  0       0
978.18  0       0
978.15  0       0
978.12  0       0
978.09  0       0
978.06  0       0
978.03  0       0
978     0       0
977.97  0       0
977.94  0       0
977.91  0       0
977.88  0       0
977.85  0       0
977.82  0       0
977.79  0       0
977.76  0       0
977.73  0       0
977.7   0       0
977.67  0       0
977.64  0       0
977.61  0       0
977.58  0       0
977.55  0       0
977.52  0       0
977.49  0       0
977.46  0       0
977.43  0       0
977.4   0       0
977.37  0       0
977.34  0       0
977.31  0       0
977.28  0       0
977.25  0       0
977.22  0       0
977.19  0       0
977.16  0       0
977.13  0       0
977.1   0       0
977.07  0       0
977.04  0       0
977.01  0.0002250
976.98  0.0009020
976.95  0.0015800
976.92  0.0022570
976.89  0.0029340
976.86  0.0036110
976.83  0.0042890
976.8   0.0049660
976.77  0.0056430
976.74  0.0063200
976.71  0.0069980
976.68  0.0076750
976.65  0.0083520
976.62  0.0090290
976.59  0.0097060
976.56  0.0103840
976.53  0.0110610
976.5   0.0117390
976.47  0.0124160
976.44  0.0130930
976.41  0.01377 0
976.38  0.0144480
976.35  0.0151250
976.32  0.0158020
976.29  0.0164790
976.26  0.0171560
976.23  0.0178340
976.2   0.0185110
976.17  0.0191880
976.14  0.0198650
976.11  0.0205430
976.08  0.02122 0
976.05  0.0218970
976.02  0.0225740
975.99  0.0232510
975.96  0.0239290
975.93  0.0246060
975.9   0.0252830
975.87  0.02596 0
975.84  0.0266380
975.81  0.0273150
975.78  0.0279920
975.75  0.0286690
975.72  0.0293470
975.69  0.0300240
975.66  0.0307010
975.63  0.0313780
975.6   0.0320550
975.57  0.0327330
975.54  0.03341 0
975.51  0.0340870
975.48  0.0347640
975.45  0.0354420
975.42  0.0361190
975.39  0.0367960
975.36  0.0374730
975.33  0.03815 0
975.3   0.0388280
975.27  0.0395050
975.24  0.0401820
975.21  0.0408590
975.18  0.0415370
975.15  0.0422140
975.12  0.0428910
975.09  0.0435680
975.06  0.0442460
975.03  0.0449230
975     0.0456  0
974.97  4       0
974.94  8       0
974.91  2       0
974.88  6       0
974.85          0
974.82          0
974.79  0.0461870
974.76          0
974.73          0
974.7           0
974.67          0
974.64          0
974.61          0
974.58  0.0467730
974.55          0
974.52          0
974.49          0
974.46          0
974.43          0
974.4           0
974.37          0
974.34          0
974.31          0
974.28          0
974.25          0
974.22          0
974.19          0
974.16          0
974.13          0
974.1           0
974.07          0
974.04          0
974.01          0
973.98          0
973.95          0
973.92  0.0486180
973.89          0
973.86          0
973.83          0
973.8           0
973.77          0
973.74          0
973.71  0.0492040
973.68          0
973.65          0
973.62          0
973.59          0
973.56          0
973.53  0.0497070
973.5   0.0497910
973.47  0.0498750
973.44  0.0499590
973.41  0.0500420
973.38  0.0501260
973.35  0.05021 0
973.32  0.0502940
973.29  0.0503780
973.26  0.0504620
973.23  0.0505450
973.2   0.0506290
973.17  0.0507130
973.14  0.0507970
973.11  0.0508810
973.08  0.0509640
973.05  0.0510480
973.02  0.0511320
972.99  0.0512160
972.96  0.0513  0
972.93  0.0513840
972.9   0.0514670
972.87  0.0515510
972.84  0.0516350
972.81  0.0517190
972.78  0.0518030
972.75  0.0518870
972.72  0.05197 0
972.69  0.0520540
972.66  0.0521380
972.63  0.0522220
972.6   0.0523060
972.57  0.0523890
972.54  0.0524730
972.51  0.0525570
972.48  0.0526410
972.45  0.0527250
972.42  0.0528090
972.39  0.0528920
972.36  0.0529760
972.33  0.05306 0
972.3   0.0531440
972.27  0.0532280
972.24  0.0533110
972.21  0.0533950
972.18  0.0534790
972.15  0.0535630
972.12  0.0536470
972.09  0.0537310
972.06  0.0538140
972.03  0.0538980
972     0.0539820
971.97  0.0540660
971.94  0.05415 0
971.91  0.0542330
971.88  0.0543170
971.85  0.0544010
971.82  0.0544850
971.79  0.0545690
971.76  0.0546530
971.73  0.0547360
971.7   0.05482 0
971.67  0.0549040
971.64  0.0549880
971.61  0.0550720
971.58  0.0551550
971.55  0.0552390
971.52  0.0553230
971.49  0.0554070
971.46  0.0554910
971.43  0.0555750
971.4   0.0556580
971.37  0.0557420
971.34  0.0558260
971.31  0.05591 0
971.28  0.0559940
971.25  0.0560780
971.22  0.0561610
971.19  0.0562450
971.16  0.0563290
971.13  0.0564130
971.1   0.0564970
971.07  0.05658 0
971.04  0.0566640
971.01  0.0567480
970.98  0.0568320
970.95  0.0569160
970.92  0.057   0
970.89  0.0570830
970.86  0.0571670
970.83  0.0572510
970.8   0.0573350
970.77  0.0574190
970.74  0.0575020
970.71  0.0575860
970.68  0.05767 0
970.65  0.0577540
970.62  0.0578380
970.59  0.0579220
970.56  0.0580050
970.53  0.0580890
970.5   0.0581730
970.47  0.0582570
970.44  0.0583410
970.41  0.0584240
970.38  0.0585080
970.35  0.0585920
970.32  0.0586760
970.29  0.05876 0
970.26  0.0588440
970.23  0.0589270
970.2   0.0590110
970.17  0.0590950
970.14  0.0591790
970.11  0.0592630
970.08  0.0593460
970.05  0.05943 0
970.02  0.0595140
969.99  0.0595980
969.96  0.0596820
969.93  0.0597660
969.9   0.0598490
969.87  0.0599330
969.84  0.0600170
969.81  0.0601010
969.78  0.0601850
969.75  0.0602690
969.72  0.0603520
969.69  0.0604360
969.66  0.06052 0
969.63  0.0606040
969.6   0.0606880
969.57  0.0607710
969.54  0.0608550
969.51  0.0609390
969.48  0.0610230
969.45  0.0611070
969.42  0.0611910
969.39  0.0612740
969.36  0.0613580
969.33  0.0614420
969.3   0.0615260
969.27  0.06161 0
969.24  0.0616930
969.21  0.0617770
969.18  0.0618610
969.15  0.0619450
969.12  0.0620290
969.09  0.0621130
969.06  0.0621960
969.03  0.06228 0
969     0.0623640
968.97  0.0624480
968.94  0.0625320
968.91  0.0626150
968.88  0.0626990
968.85  0.0627830
968.82  0.0628670
968.79  0.0629510
968.76  0.0630350
968.73  0.0631180
968.7   0.0632020
968.67  0.0632860
968.64  0.06337 0
968.61  0.0634540
968.58  0.0635370
968.55  0.0636210
968.52  0.0637050
968.49  0.0637890
968.46  0.0638730
968.43  0.0639570
968.4   0.06404 0
968.37  0.0641240
968.34  0.0642080
968.31  0.0642920
968.28  0.0643760
968.25  0.06446 0
968.22  0.0645430
968.19  0.0646270
968.16  0.0647110
968.13  0.0647950
968.1   0.0648790
968.07  0.0649620
968.04  0.0650460
968.01  0.06513 0
967.98  0.0652140
967.95  0.0652980
967.92  0.0653820
967.89  0.0654650
967.86  0.0655490
967.83  0.0656330
967.8   0.0657170
967.77  0.0658010
967.74  0.0658840
967.71  0.0659680
967.68  0.0660520
967.65  0.0661360
967.62  0.06622 0
967.59  0.0663040
967.56  0.0663870
967.53  0.0664710
967.5   0.0665550
967.47  0.0666390
967.44  0.0667230
967.41  0.0668060
967.38  0.06689 0
967.35  0.0669740
967.32  0.0670580
967.29  0.0671420
967.26  0.0672260
967.23  0.0673090
967.2   0.0673930
967.17  0.0674770
967.14  0.0675610
967.11  0.0676450
967.08  0.0677280
967.05  0.0678120
967.02  0.0678960
966.99  0.06798 0
966.96  0.0680640
966.93  0.0681480
966.9   0.0682310
966.87  0.0683150
966.84  0.0683990
966.81  0.0684830
966.78  0.0685670
966.75  0.0686510
966.72  0.0687340
966.69  0.0688180
966.66  0.0689020
966.63  0.0689860
966.6   0.06907 0
966.57  0.0691530
966.54  0.0692370
966.51  0.0693210
966.48  0.0694050
966.45  0.0694890
966.42  0.0695730
966.39  0.0696560
966.36  0.06974 0
966.33  0.0698240
966.3   0.0699080
966.27  0.0699920
966.24  0.0700750
966.21  0.0701590
966.18  0.0702430
966.15  0.0703270
966.12  0.0704110
966.09  0.0704950
966.06  0.0705780
966.03  0.0706620
966     0.0707460
965.97  0.07083 0
965.94  0.0709140
965.91  0.0709970
965.88  0.0710810
965.85  0.0711650
965.82  0.0712490
965.79  0.0713330
965.76  0.0714170
965.73  0.0715  0
965.7   0.0715840
965.67  0.0716680
965.64  0.0717520
965.61  0.0718360
965.58  0.0719190
965.55  0.0720030
965.52  0.0720870
965.49  0.0721710
965.46  0.0722550
965.43  0.0723390
965.4   0.0724220
965.37  0.0725060
965.34  0.07259 0
965.31  0.0726740
965.28  0.0727580
965.25  0.0728420
965.22  0.0729250
965.19  0.0730090
965.16  0.0730930
965.13  0.0731770
965.1   0.0732610
965.07  0.0733440
965.04  0.0734280
965.01  0.0735120
964.98  0.0735960
964.95  0.07368 0
964.92  0.0737640
964.89  0.0738470
964.86  0.0739310
964.83  0.0740150
964.8   0.0740990
964.77  0.0741830
964.74  0.0742660
964.71  0.07435 0
964.68  0.0744340
964.65  0.0745180
964.62  0.0746020
964.59  0.0746860
964.56  0.0747690
964.53  0.0748530
964.5   0.0749370
964.47  0.0750210
964.44  0.0751050
964.41  0.0751880
964.38  0.0752720
964.35  0.0753560
964.32  0.07544 0
964.29  0.0755240
964.26  0.0756080
964.23  0.0756910
964.2   0.0757750
964.17  0.0758590
964.14  0.0759430
964.11  0.0760270
964.08  0.07611 0
964.05  0.0761940
964.02  0.0762780
963.99  0.0763620
963.96  0.0764460
963.93  0.07653 0
963.9   0.0766130
963.87  0.0766970
963.84  0.0767810
963.81  0.0768650
963.78  0.0769490
963.75  0.0770330
963.72  0.0771160
963.69  0.0772  0
963.66  0.0772840
963.63  0.0773680
963.6   0.0774520
963.57  0.0775350
963.54  0.0776190
963.51  0.0777030
963.48  0.0777870
963.45  0.0778710
963.42  0.0779550
963.39  0.0780380
963.36  0.0781220
963.33  0.0782060
963.3   0.07829 0
963.27  0.0783740
963.24  0.0784570
963.21  0.0785410
963.18  0.0786250
963.15  0.0787090
963.12  0.0787930
963.09  0.0788770
963.06  0.07896 0
963.03  0.0790440
963     0.0791280
962.97  0.0792120
962.94  0.0792960
962.91  0.0793790
962.88  0.0794630
962.85  0.0795470
962.82  0.0796310
962.79  0.0797150
962.76  0.0797990
962.73  0.0798820
962.7   0.0799660
962.67  0.08005 0
962.64  0.0801340
962.61  0.0802180
962.58  0.0803010
962.55  0.0803850
962.52  0.0804690
962.49  0.0805530
962.46  0.0806370
962.43  0.0807210
962.4   0.0808040
962.37  0.0808880
962.34  0.0809720
962.31  0.0810560
962.28  0.08114 0
962.25  0.0812240
962.22  0.0813070
962.19  0.0813910
962.16  0.0814750
962.13  0.0815590
962.1   0.0816430
962.07  0.0817260
962.04  0.08181 0
962.01  0.0818940
961.98  0.0819780
961.95  0.0820620
961.92  0.0821460
961.89  0.0822290
961.86  0.0823130
961.83  0.0823970
961.8   0.0824810
961.77  0.0825650
961.74  0.0826480
961.71  0.0827320
961.68  0.0828160
961.65  0.0829  0
961.62  0.0829840
961.59  0.0830680
961.56  0.0831510
961.53  0.0832350
961.5   0.0833190
961.47  0.0834030
961.44  0.0834870
961.41  0.08357 0
961.38  0.0836540
961.35  0.0837380
961.32  0.0838220
961.29  0.0839060
961.26  0.08399 0
961.23  0.0840730
961.2   0.0841570
961.17  0.0842410
961.14  0.0843250
961.11  0.0844090
961.08  0.0844920
961.05  0.0845760
961.02  0.08466 0
960.99  0.0847440
960.96  0.0848280
960.93  0.0849120
960.9   0.0849950
960.87  0.0850790
960.84  0.0851630
960.81  0.0852470
960.78  0.0853310
960.75  0.0854150
960.72  0.0854980
960.69  0.0855820
960.66  0.0856660
960.63  0.08575 0
960.6   0.0858340
960.57  0.0859170
960.54  0.0860010
960.51  0.0860850
960.48  0.0861690
960.45  0.0862530
960.42  0.0863370
960.39  0.08642 0
960.36  0.0865040
960.33  0.0865880
960.3   0.0866720
960.27  0.0867560
960.24  0.0868390
960.21  0.0869230
960.18  0.0870070
960.15  0.0870910
960.12  0.0871750
960.09  0.0872590
960.06  0.0873420
960.03  0.0874260
960     0.08751 0
959.97  0.0875940
959.94  0.0876780
959.91  0.0877610
959.88  0.0878450
959.85  0.0879290
959.82  0.0880130
959.79  0.0880970
959.76  0.0881810
959.73  0.0882640
959.7   0.0883480
959.67  0.0884320
959.64  0.0885160
959.61  0.0886  0
959.58  0.0886830
959.55  0.0887670
959.52  0.0888510
959.49  0.0889350
959.46  0.0890190
959.43  0.0891030
959.4   0.0891860
959.37  0.08927 0
959.34  0.0893540
959.31  0.0894380
959.28  0.0895220
959.25  0.0896060
959.22  0.0896890
959.19  0.0897730
959.16  0.0898570
959.13  0.0899410
959.1   0.0900250
959.07  0.0901080
959.04  0.0901920
959.01  0.0902760
958.98  0.09036 0
958.95  0.0904440
958.92  0.0905280
958.89  0.0906110
958.86  0.0906950
958.83  0.0907790
958.8   0.0908630
958.77  0.0909470
958.74  0.09103 0
958.71  0.0911140
958.68  0.0911980
958.65  0.0912820
958.62  0.0913660
958.59  0.09145 0
958.56  0.0915330
958.53  0.0916170
958.5   0.0917010
958.47  0.0917850
958.44  0.0918690
958.41  0.0919520
958.38  0.0920360
958.35  0.09212 0
958.32  0.0922040
958.29  0.0922880
958.26  0.0923720
958.23  0.0924550
958.2   0.0925390
958.17  0.0926230
958.14  0.0927070
958.11  0.0927910
958.08  0.0928740
958.05  0.0929580
958.02  0.0930420
957.99  0.0931260
957.96  0.09321 0
957.93  0.0932940
957.9   0.0933770
957.87  0.0934610
957.84  0.0935450
957.81  0.0936290
957.78  0.0937130
957.75  0.0937970
957.72  0.09388 0
957.69  0.0939640
957.66  0.0940480
957.63  0.0941320
957.6   0.0942160
957.57  0.0942990
957.54  0.0943830
957.51  0.0944670
957.48  0.0945510
957.45  0.0946350
957.42  0.0947190
957.39  0.0948020
957.36  0.0948860
957.33  0.09497 0
957.3   0.0950540
957.27  0.0951380
957.24  0.0952210
957.21  0.0953050
957.18  0.0953890
957.15  0.0954730
957.12  0.0955570
957.09  0.0956410
957.06  0.0957240
957.03  0.0958080
957     0.0958920
956.97  0.0959760
956.94  0.09606 0
956.91  0.0961430
956.88  0.0962270
956.85  0.0963110
956.82  0.0963950
956.79  0.0964790
956.76  0.0965630
956.73  0.0966460
956.7   0.09673 0
956.67  0.0968140
956.64  0.0968980
956.61  0.0969820
956.58  0.0970650
956.55  0.0971490
956.52  0.0972330
956.49  0.0973170
956.46  0.0974010
956.43  0.0974850
956.4   0.0975680
956.37  0.0976520
956.34  0.0977360
956.31  0.09782 0
956.28  0.0979040
956.25  0.0979880
956.22  0.0980710
956.19  0.0981550
956.16  0.0982390
956.13  0.0983230
956.1   0.0984070
956.07  0.09849 0
956.04  0.0985740
956.01  0.0986580
955.98  0.0987420
955.95  0.0988260
955.92  0.09891 0
955.89  0.0989930
955.86  0.0990770
955.83  0.0991610
955.8   0.0992450
955.77  0.0993290
955.74  0.0994120
955.71  0.0994960
955.68  0.09958 0
955.65  0.0996640
955.62  0.0997480
955.59  0.0998320
955.56  0.0999150
955.53  0.0999990
955.5   0.10008 0
955.47  0.10017 0
955.44  0.10025 0
955.41  0.10033 0
955.38  0.10042 0
955.35  0.1005  0
955.32  0.10059 0
955.29  0.10067 0
955.26  0.10075 0
955.23  0.10084 0
955.2   0.10092 0
955.17  0.10101 0
955.14  0.10109 0
955.11  0.10117 0
955.08  0.10126 0
955.05  0.10134 0
955.02  0.10142 0
954.99  0.10151 0
954.96  0.10159 0
954.93  0.10168 0
954.9   0.10176 0
954.87  0.10184 0
954.84  0.10193 0
954.81  0.10201 0
954.78  0.10209 0
954.75  0.10218 0
954.72  0.10226 0
954.69  0.10235 0
954.66  0.10243 0
954.63  0.10251 0
954.6   0.1026  0
954.57  0.10268 0
954.54  0.10277 0
954.51  0.10285 0
954.48  0.10293 0
954.45  0.10302 0
954.42  0.1031  0
954.39  0.10318 0
954.36  0.10327 0
954.33  0.10335 0
954.3   0.10344 0
954.27  0.10352 0
954.24  0.1036  0
954.21  0.10369 0
954.18  0.10377 0
954.15  0.10385 0
954.12  0.10394 0
954.09  0.10402 0
954.06  0.10411 0
954.03  0.10419 0
954     0.10427 0
953.97  0.10436 0
953.94  0.10444 0
953.91  0.10453 0
953.88  0.10461 0
953.85  0.10469 0
953.82  0.10478 0
953.79  0.10486 0
953.76  0.10494 0
953.73  0.10503 0
953.7   0.10511 0
953.67  0.1052  0
953.64  0.10528 0
953.61  0.10536 0
953.58  0.10545 0
953.55  0.10553 0
953.52  0.10562 0
953.49  0.1057  0
953.46  0.10578 0
953.43  0.10587 0
953.4   0.10595 0
953.37  0.10603 0
953.34  0.10612 0
953.31  0.1062  0
953.28  0.10629 0
953.25  0.10637 0
953.22  0.10645 0
953.19  0.10654 0
953.16  0.10662 0
953.13  0.1067  0
953.1   0.10679 0
953.07  0.10687 0
953.04  0.10696 0
953.01  0.10704 0
952.98  0.10712 0
952.95  0.10721 0
952.92  0.10729 0
952.89  0.10738 0
952.86  0.10746 0
952.83  0.10754 0
952.8   0.10763 0
952.77  0.10771 0
952.74  0.10779 0
952.71  0.10788 0
952.68  0.10796 0
952.65  0.10805 0
952.62  0.10813 0
952.59  0.10821 0
952.56  0.1083  0
952.53  0.10838 0
952.5   0.10847 0
952.47  0.10855 0
952.44  0.10863 0
952.41  0.10872 0
952.38  0.1088  0
952.35  0.10888 0
952.32  0.10897 0
952.29  0.10905 0
952.26  0.10914 0
952.23  0.10922 0
952.2   0.1093  0
952.17  0.10939 0
952.14  0.10947 0
952.11  0.10955 0
952.08  0.10964 0
952.05  0.10972 0
952.02  0.10981 0
951.99  0.10989 0
951.96  0.10997 0
951.93  0.11006 0
951.9   0.11014 0
951.87  0.11023 0
951.84  0.11031 0
951.81  0.11039 0
951.78  0.11048 0
951.75  0.11056 0
951.72  0.11064 0
951.69  0.11073 0
951.66  0.11081 0
951.63  0.1109  0
951.6   0.11098 0
951.57  0.11106 0
951.54  0.11115 0
951.51  0.11123 0
951.48  0.11131 0
951.45  0.1114  0
951.42  0.11148 0
951.39  0.11157 0
951.36  0.11165 0
951.33  0.11173 0
951.3   0.11182 0
951.27  0.1119  0
951.24  0.11199 0
951.21  0.11207 0
951.18  0.11215 0
951.15  0.11224 0
951.12  0.11232 0
951.09  0.1124  0
951.06  0.11249 0
951.03  0.11257 0
951     0.11266 0
950.97  0.11274 0
950.94  0.11282 0
950.91  0.11291 0
950.88  0.11299 0
950.85  0.11308 0
950.82  0.11316 0
950.79  0.11324 0
950.76  0.11333 0
950.73  0.11341 0
950.7   0.11349 0
950.67  0.11358 0
950.64  0.11366 0
950.61  0.11375 0
950.58  0.11383 0
950.55  0.11391 0
950.52  0.114   0
950.49  0.11408 0
950.46  0.11416 0
950.43  0.11425 0
950.4   0.11433 0
950.37  0.11442 0
950.34  0.1145  0
950.31  0.11458 0
950.28  0.11467 0
950.25  0.11475 0
950.22  0.11484 0
950.19  0.11492 0
950.16  0.115   0
950.13  0.11509 0
950.1   0.11517 0
950.07  0.11525 0
950.04  0.11534 0
950.01  0.11542 0
949.98  0.11551 0
949.95  0.11559 0
949.92  0.11567 0
949.89  0.11576 0
949.86  0.11584 0
949.83  0.11592 0
949.8   0.11601 0
949.77  0.11609 0
949.74  0.11618 0
949.71  0.11626 0
949.68  0.11634 0
949.65  0.11643 0
949.62  0.11651 0
949.59  0.1166  0
949.56  0.11668 0
949.53  0.11676 0
949.5   0.11685 0
949.47  0.11693 0
949.44  0.11701 0
949.41  0.1171  0
949.38  0.11718 0
949.35  0.11727 0
949.32  0.11735 0
949.29  0.11743 0
949.26  0.11752 0
949.23  0.1176  0
949.2   0.11769 0
949.17  0.11777 0
949.14  0.11785 0
949.11  0.11794 0
949.08  0.11802 0
949.05  0.1181  0
949.02  0.11819 0
948.99  0.11827 0
948.96  0.11836 0
948.93  0.11844 0
948.9   0.11852 0
948.87  0.11861 0
948.84  0.11869 0
948.81  0.11877 0
948.78  0.11886 0
948.75  0.11894 0
948.72  0.11903 0
948.69  0.11911 0
948.66  0.11919 0
948.63  0.11928 0
948.6   0.11936 0
948.57  0.11945 0
948.54  0.11953 0
948.51  0.11961 0
948.48  0.1197  0
948.45  0.11978 0
948.42  0.11986 0
948.39  0.11995 0
948.36  0.12003 0
948.33  0.12012 0
948.3   0.1202  0
948.27  0.12028 0
948.24  0.12037 0
948.21  0.12045 0
948.18  0.12054 0
948.15  0.12062 0
948.12  0.1207  0
948.09  0.12079 0
948.06  0.12087 0
948.03  0.12095 0
948     0.12104 0
947.97  0.12112 0
947.94  0.12121 0
947.91  0.12129 0
947.88  0.12137 0
947.85  0.12146 0
947.82  0.12154 0
947.79  0.12162 0
947.76  0.12171 0
947.73  0.12179 0
947.7   0.12188 0
947.67  0.12196 0
947.64  0.12204 0
947.61  0.12213 0
947.58  0.12221 0
947.55  0.1223  0
947.52  0.12238 0
947.49  0.12246 0
947.46  0.12255 0
947.43  0.12263 0
947.4   0.12271 0
947.37  0.1228  0
947.34  0.12288 0
947.31  0.12297 0
947.28  0.12305 0
947.25  0.12313 0
947.22  0.12322 0
947.19  0.1233  0
947.16  0.12338 0
947.13  0.12347 0
947.1   0.12355 0
947.07  0.12364 0
947.04  0.12372 0
947.01  0.1238  0
946.98  0.12389 0
946.95  0.12397 0
946.92  0.12406 0
946.89  0.12414 0
946.86  0.12422 0
946.83  0.12431 0
946.8   0.12439 0
946.77  0.12447 0
946.74  0.12456 0
946.71  0.12464 0
946.68  0.12473 0
946.65  0.12481 0
946.62  0.12489 0
946.59  0.12498 0
946.56  0.12506 0
946.53  0.12515 0
946.5   0.12523 0
946.47  0.12531 0
946.44  0.1254  0
946.41  0.12548 0
946.38  0.12556 0
946.35  0.12565 0
946.32  0.12573 0
946.29  0.12582 0
946.26  0.1259  0
946.23  0.12598 0
946.2   0.12607 0
946.17  0.12615 0
946.14  0.12623 0
946.11  0.12632 0
946.08  0.1264  0
946.05  0.12649 0
946.02  0.12657 0
945.99  0.12665 0
945.96  0.12674 0
945.93  0.12682 0
945.9   0.12691 0
945.87  0.12699 0
945.84  0.12707 0
945.81  0.12716 0
945.78  0.12724 0
945.75  0.12732 0
945.72  0.12741 0
945.69  0.12749 0
945.66  0.12758 0
945.63  0.12766 0
945.6   0.12774 0
945.57  0.12783 0
945.54  0.12791 0
945.51  0.128   0
945.48  0.12808 0
945.45  0.12816 0
945.42  0.12825 0
945.39  0.12833 0
945.36  0.12841 0
945.33  0.1285  0
945.3   0.12858 0
945.27  0.12867 0
945.24  0.12875 0
945.21  0.12883 0
945.18  0.12892 0
945.15  0.129   0
945.12  0.12908 0
945.09  0.12917 0
945.06  0.12925 0
945.03  0.12934 0
945     0.12942 0
944.97  0.1295  0
944.94  0.12959 0
944.91  0.12967 0
944.88  0.12976 0
944.85  0.12984 0
944.82  0.12992 0
944.79  0.13001 0
944.76  0.13009 0
944.73  0.13017 0
944.7   0.13026 0
944.67  0.13034 0
944.64  0.13043 0
944.61  0.13051 0
944.58  0.13059 0
944.55  0.13068 0
944.52  0.13076 0
944.49  0.13084 0
944.46  0.13093 0
944.43  0.13101 0
944.4   0.1311  0
944.37  0.13118 0
944.34  0.13126 0
944.31  0.13135 0
944.28  0.13143 0
944.25  0.13152 0
944.22  0.1316  0
944.19  0.13168 0
944.16  0.13177 0
944.13  0.13185 0
944.1   0.13193 0
944.07  0.13202 0
944.04  0.1321  0
944.01  0.13219 0
943.98  0.13227 0
943.95  0.13235 0
943.92  0.13244 0
943.89  0.13252 0
943.86  0.13261 0
943.83  0.13269 0
943.8   0.13277 0
943.77  0.13286 0
943.74  0.13294 0
943.71  0.13302 0
943.68  0.13311 0
943.65  0.13319 0
943.62  0.13328 0
943.59  0.13336 0
943.56  0.13344 0
943.53  0.13353 0
943.5   0.13361 0
943.47  0.13369 0
943.44  0.13378 0
943.41  0.13386 0
943.38  0.13395 0
943.35  0.13403 0
943.32  0.13411 0
943.29  0.1342  0
943.26  0.13428 0
943.23  0.13437 0
943.2   0.13445 0
943.17  0.13453 0
943.14  0.13462 0
943.11  0.1347  0
943.08  0.13478 0
943.05  0.13487 0
943.02  0.13495 0
942.99  0.13504 0
942.96  0.13512 0
942.93  0.1352  0
942.9   0.13529 0
942.87  0.13537 0
942.84  0.13546 0
942.81  0.13554 0
942.78  0.13562 0
942.75  0.13571 0
942.72  0.13579 0
942.69  0.13587 0
942.66  0.13596 0
942.63  0.13604 0
942.6   0.13613 0
942.57  0.13621 0
942.54  0.13629 0
942.51  0.13638 0
942.48  0.13646 0
942.45  0.13654 0
942.42  0.13663 0
942.39  0.13671 0
942.36  0.1368  0
942.33  0.13688 0
942.3   0.13696 0
942.27  0.13705 0
942.24  0.13713 0
942.21  0.13722 0
942.18  0.1373  0
942.15  0.13738 0
942.12  0.13747 0
942.09  0.13755 0
942.06  0.13763 0
942.03  0.13772 0
942     0.1378  0
941.97  0.13789 0
941.94  0.13797 0
941.91  0.13805 0
941.88  0.13814 0
941.85  0.13822 0
941.82  0.1383  0
941.79  0.13839 0
941.76  0.13847 0
941.73  0.13856 0
941.7   0.13864 0
941.67  0.13872 0
941.64  0.13881 0
941.61  0.13889 0
941.58  0.13898 0
941.55  0.13906 0
941.52  0.13914 0
941.49  0.13923 0
941.46  0.13931 0
941.43  0.13939 0
941.4   0.13948 0
941.37  0.13956 0
941.34  0.13965 0
941.31  0.13973 0
941.28  0.13981 0
941.25  0.1399  0
941.22  0.13998 0
941.19  0.14007 0
941.16  0.14015 0
941.13  0.14023 0
941.1   0.14032 0
941.07  0.1404  0
941.04  0.14048 0
941.01  0.14057 0
940.98  0.14065 0
940.95  0.14074 0
940.92  0.14082 0
940.89  0.1409  0
940.86  0.14099 0
940.83  0.14107 0
940.8   0.14115 0
940.77  0.14124 0
940.74  0.14132 0
940.71  0.14141 0
940.68  0.14149 0
940.65  0.14157 0
940.62  0.14166 0
940.59  0.14174 0
940.56  0.14183 0
940.53  0.14191 0
940.5   0.14199 0
940.47  0.14208 0
940.44  0.14216 0
940.41  0.14224 0
940.38  0.14233 0
940.35  0.14241 0
940.32  0.1425  0
940.29  0.14258 0
940.26  0.14266 0
940.23  0.14275 0
940.2   0.14283 0
940.17  0.14292 0
940.14  0.143   0
940.11  0.14308 0
940.08  0.14317 0
940.05  0.14325 0
940.02  0.14333 0
939.99  0.14342 0
939.96  0.1435  0
939.93  0.14359 0
939.9   0.14367 0
939.87  0.14375 0
939.84  0.14384 0
939.81  0.14392 0
939.78  0.144   0
939.75  0.14409 0
939.72  0.14417 0
939.69  0.14426 0
939.66  0.14434 0
939.63  0.14442 0
939.6   0.14451 0
939.57  0.14459 0
939.54  0.14468 0
939.51  0.14476 0
939.48  0.14484 0
939.45  0.14493 0
939.42  0.14501 0
939.39  0.14509 0
939.36  0.14518 0
939.33  0.14526 0
939.3   0.14535 0
939.27  0.14543 0
939.24  0.14551 0
939.21  0.1456  0
939.18  0.14568 0
939.15  0.14576 0
939.12  0.14585 0
939.09  0.14593 0
939.06  0.14602 0
939.03  0.1461  0
939     0.14618 0
938.97  0.14627 0
938.94  0.14635 0
938.91  0.14644 0
938.88  0.14652 0
938.85  0.1466  0
938.82  0.14669 0
938.79  0.14677 0
938.76  0.14685 0
938.73  0.14694 0
938.7   0.14702 0
938.67  0.14711 0
938.64  0.14719 0
938.61  0.14727 0
938.58  0.14736 0
938.55  0.14744 0
938.52  0.14753 0
938.49  0.14761 0
938.46  0.14769 0
938.43  0.14778 0
938.4   0.14786 0
938.37  0.14794 0
938.34  0.14803 0
938.31  0.14811 0
938.28  0.1482  0
938.25  0.14828 0
938.22  0.14836 0
938.19  0.14845 0
938.16  0.14853 0
938.13  0.14861 0
938.1   0.1487  0
938.07  0.14878 0
938.04  0.14887 0
938.01  0.14895 0
937.98  0.14903 0
937.95  0.14912 0
937.92  0.1492  0
937.89  0.14929 0
937.86  0.14937 0
937.83  0.14945 0
937.8   0.14954 0
937.77  0.14962 0
937.74  0.1497  0
937.71  0.14979 0
937.68  0.14987 0
937.65  0.14996 0
937.62  0.15004 0
937.59  0.15012 0
937.56  0.15021 0
937.53  0.15029 0
937.5   0.15038 0
937.47  0.15046 0
937.44  0.15054 0
937.41  0.15063 0
937.38  0.15071 0
937.35  0.15079 0
937.32  0.15088 0
937.29  0.15096 0
937.26  0.15105 0
937.23  0.15113 0
937.2   0.15121 0
937.17  0.1513  0
937.14  0.15138 0
937.11  0.15146 0
937.08  0.15155 0
937.05  0.15163 0
937.02  0.15172 0
936.99  0       0
936.96  0       0
936.93  0       0
936.9   0       0
936.87  0       0
936.84  0       0
936.81  0       0
936.78  0       0
936.75  0       0
936.72  0       0
936.69  0       0
936.66  0       0
936.63  0       0
936.6   0       0
936.57  0       0
936.54  0       0
936.51  0       0
936.48  0       0
936.45  0       0
936.42  0       0
936.39  0       0
936.36  0       0
936.33  0       0
936.3   0       0
936.27  0       0
936.24  0       0
936.21  0       0
936.18  0       0
936.15  0       0
936.12  0       0
936.09  0       0
936.06  0       0
936.03  0       0
936     0       0
935.97  0       0
935.94  0       0
935.91  0       0
935.88  0       0
935.85  0       0
935.82  0       0
935.79  0       0
935.76  0       0
935.73  0       0
935.7   0       0
935.67  0       0
935.64  0       0
935.61  0       0
935.58  0       0
935.55  0       0
935.52  0       0
935.49  0       0
935.46  0       0
935.43  0       0
935.4   0       0
935.37  0       0
935.34  0       0
935.31  0       0
935.28  0       0
935.25  0       0
935.22  0       0
935.19  0       0
935.16  0       0
935.13  0       0
935.1   0       0
935.07  0       0
935.04  0       0
935.01  0       0
934.98  0.15742 0
934.95  0.1575  0
934.92  0.15758 0
934.89  0.15767 0
934.86  0.15775 0
934.83  0.15783 0
934.8   0.15792 0
934.77  0.158   0
934.74  0.15809 0
934.71  0.15817 0
934.68  0.15825 0
934.65  0.15834 0
934.62  0.15842 0
934.59  0.15851 0
934.56  0.15859 0
934.53  0.15867 0
934.5   0.15876 0
934.47  0.15884 0
934.44  0.15892 0
934.41  0.15901 0
934.38  0.15909 0
934.35  0.15918 0
934.32  0.15926 0
934.29  0.15934 0
934.26  0.15943 0
934.23  0.15951 0
934.2   0.1596  0
934.17  0.15968 0
934.14  0.15976 0
934.11  0.15985 0
934.08  0.15993 0
934.05  0.16001 0
934.02  0.1601  0
933.99  0.16018 0
933.96  0.16027 0
933.93  0.16035 0
933.9   0.16043 0
933.87  0.16052 0
933.84  0.1606  0
933.81  0.16068 0
933.78  0.16077 0
933.75  0.16085 0
933.72  0.16094 0
933.69  0.16102 0
933.66  0.1611  0
933.63  0.16119 0
933.6   0.16127 0
933.57  0.16136 0
933.54  0.16144 0
933.51  0.16152 0
933.48  0.16161 0
933.45  0.16169 0
933.42  0.16177 0
933.39  0.16186 0
933.36  0.16194 0
933.33  0.16203 0
933.3   0.16211 0
933.27  0.16219 0
933.24  0.16228 0
933.21  0.16236 0
933.18  0.16245 0
933.15  0.16253 0
933.12  0.16261 0
933.09  0.1627  0
933.06  0.16278 0
933.03  0.16286 0
933     0       0
932.97  0       0
932.94  0       0
932.91  0       0
932.88  0       0
932.85  0       0
932.82  0       0
932.79  0       0
932.76  0       0
932.73  0       0
932.7   0       0
932.67  0       0
932.64  0       0
932.61  0       0
932.58  0       0
932.55  0       0
932.52  0       0
932.49  0       0
932.46  0       0
932.43  0       0
932.4   0       0
932.37  0       0
932.34  0       0
932.31  0       0
932.28  0       0
932.25  0       0
932.22  0       0
932.19  0       0
932.16  0       0
932.13  0       0
932.1   0       0
932.07  0       0
932.04  0       0
932.01  0       0
931.98  0.1658  0
931.95  0.16588 0
931.92  0.16597 0
931.89  0.16605 0
931.86  0.16613 0
931.83  0.16622 0
931.8   0.1663  0
931.77  0.16638 0
931.74  0.16647 0
931.71  0.16655 0
931.68  0.16664 0
931.65  0.16672 0
931.62  0.1668  0
931.59  0.16689 0
931.56  0.16697 0
931.53  0.16706 0
931.5   0.16714 0
931.47  0.16722 0
931.44  0.16731 0
931.41  0.16739 0
931.38  0.16747 0
931.35  0.16756 0
931.32  0.16764 0
931.29  0.16773 0
931.26  0.16781 0
931.23  0.16789 0
931.2   0.16798 0
931.17  0.16806 0
931.14  0.16814 0
931.11  0.16823 0
931.08  0.16831 0
931.05  0.1684  0
931.02  0.16848 0
930.99  0.16856 0
930.96  0.16865 0
930.93  0.16873 0
930.9   0.16882 0
930.87  0.1689  0
930.84  0.16898 0
930.81  0.16907 0
930.78  0.16915 0
930.75  0.16923 0
930.72  0.16932 0
930.69  0.1694  0
930.66  0.16949 0
930.63  0.16957 0
930.6   0.16965 0
930.57  0.16974 0
930.54  0.16982 0
930.51  0.16991 0
930.48  0.16999 0
930.45  0.17007 0
930.42  0.17016 0
930.39  0.17024 0
930.36  0.17032 0
930.33  0.17041 0
930.3   0.17049 0
930.27  0.17058 0
930.24  0.17066 0
930.21  0.17074 0
930.18  0.17083 0
930.15  0.17091 0
930.12  0.17099 0
930.09  0.17108 0
930.06  0.17116 0
930.03  0.17125 0
930     0       0
929.97  0       0
929.94  0       0
929.91  0       0
929.88  0       0
929.85  0       0
929.82  0       0
929.79  0       0
929.76  0       0
929.73  0       0
929.7   0       0
929.67  0       0
929.64  0       0
929.61  0       0
929.58  0       0
929.55  0       0
929.52  0       0
929.49  0       0
929.46  0       0
929.43  0       0
929.4   0       0
929.37  0       0
929.34  0       0
929.31  0       0
929.28  0       0
929.25  0       0
929.22  0       0
929.19  0       0
929.16  0       0
929.13  0       0
929.1   0       0
929.07  0       0
929.04  0       0
929.01  0       0
928.98  0       0
928.95  0       0
928.92  0       0
928.89  0       0
928.86  0       0
928.83  0       0
928.8   0       0
928.77  0       0
928.74  0       0
928.71  0       0
928.68  0       0
928.65  0       0
928.62  0       0
928.59  0       0
928.56  0       0
928.53  0       0
928.5   0       0
928.47  0       0
928.44  0       0
928.41  0       0
928.38  0       0
928.35  0       0
928.32  0       0
928.29  0       0
928.26  0       0
928.23  0       0
928.2   0       0
928.17  0       0
928.14  0       0
928.11  0       0
928.08  0       0
928.05  0       0
928.02  0       0
927.99  0.17695 0
927.96  0.17703 0
927.93  0.17711 0
927.9   0.1772  0
927.87  0.17728 0
927.84  0.17737 0
927.81  0.17745 0
927.78  0.17753 0
927.75  0.17762 0
927.72  0.1777  0
927.69  0.17778 0
927.66  0.17787 0
927.63  0.17795 0
927.6   0.17804 0
927.57  0.17812 0
927.54  0.1782  0
927.51  0.17829 0
927.48  0.17837 0
927.45  0.17845 0
927.42  0.17854 0
927.39  0.17862 0
927.36  0.17871 0
927.33  0.17879 0
927.3   0.17887 0
927.27  0.17896 0
927.24  0.17904 0
927.21  0.17913 0
927.18  0.17921 0
927.15  0.17929 0
927.12  0.17938 0
927.09  0.17946 0
927.06  0.17954 0
927.03  0.17963 0
927     0.17971 0
926.97  0.1798  0
926.94  0.17988 0
926.91  0.17996 0
926.88  0.18005 0
926.85  0.18013 0
926.82  0.18021 0
926.79  0.1803  0
926.76  0.18038 0
926.73  0.18047 0
926.7   0.18055 0
926.67  0.18063 0
926.64  0.18072 0
926.61  0.1808  0
926.58  0.18089 0
926.55  0.18097 0
926.52  0.18105 0
926.49  0.18114 0
926.46  0.18122 0
926.43  0.1813  0
926.4   0.18139 0
926.37  0.18147 0
926.34  0.18156 0
926.31  0.18164 0
926.28  0.18172 0
926.25  0.18181 0
926.22  0.18189 0
926.19  0.18198 0
926.16  0.18206 0
926.13  0.18214 0
926.1   0.18223 0
926.07  0.18231 0
926.04  0.18239 0
926.01  0.18248 0
925.98  0       0
925.95  0       0
925.92  0       0
925.89  0       0
925.86  0       0
925.83  0       0
925.8   0       0
925.77  0       0
925.74  0       0
925.71  0       0
925.68  0       0
925.65  0       0
925.62  0       0
925.59  0       0
925.56  0       0
925.53  0       0
925.5   0       0
925.47  0       0
925.44  0       0
925.41  0       0
925.38  0       0
925.35  0       0
925.32  0       0
925.29  0       0
925.26  0       0
925.23  0       0
925.2   0       0
925.17  0       0
925.14  0       0
925.11  0       0
925.08  0       0
925.05  0       0
925.02  0       0
924.99  0.18536 0
924.96  0.18553 0
924.93  0.18571 0
924.9   0.18588 0
924.87  0.18606 0
924.84  0.18623 0
924.81  0.18641 0
924.78  0.18658 0
924.75  0.18676 0
924.72  0.18693 0
924.69  0.1871  0
924.66  0.18728 0
924.63  0.18745 0
924.6   0.18763 0
924.57  0.1878  0
924.54  0.18798 0
924.51  0.18815 0
924.48  0.18833 0
924.45  0.1885  0
924.42  0.18868 0
924.39  0.18885 0
924.36  0.18902 0
924.33  0.1892  0
924.3   0.18937 0
924.27  0.18955 0
924.24  0.18972 0
924.21  0.1899  0
924.18  0.19007 0
924.15  0.19025 0
924.12  0.19042 0
924.09  0.1906  0
924.06  0.19077 0
924.03  0.19095 0
924     0.19112 0
923.97  0.19129 0
923.94  0.19147 0
923.91  0.19164 0
923.88  0.19182 0
923.85  0.19199 0
923.82  0.19217 0
923.79  0.19234 0
923.76  0.19252 0
923.73  0.19269 0
923.7   0.19287 0
923.67  0.19304 0
923.64  0.19322 0
923.61  0.19339 0
923.58  0.19356 0
923.55  0.19374 0
923.52  0.19391 0
923.49  0.19409 0
923.46  0.19426 0
923.43  0.19444 0
923.4   0.19461 0
923.37  0.19479 0
923.34  0.19496 0
923.31  0.19514 0
923.28  0.19531 0
923.25  0.19548 0
923.22  0.19566 0
923.19  0.19583 0
923.16  0.19601 0
923.13  0.19618 0
923.1   0.19636 0
923.07  0.19653 0
923.04  0.19671 0
923.01  0.19688 0
922.98  0       0
922.95  0       0
922.92  0       0
922.89  0       0
922.86  0       0
922.83  0       0
922.8   0       0
922.77  0       0
922.74  0       0
922.71  0       0
922.68  0       0
922.65  0       0
922.62  0       0
922.59  0       0
922.56  0       0
922.53  0       0
922.5   0       0
922.47  0       0
922.44  0       0
922.41  0       0
922.38  0       0
922.35  0       0
922.32  0       0
922.29  0       0
922.26  0       0
922.23  0       0
922.2   0       0
922.17  0       0
922.14  0       0
922.11  0       0
922.08  0       0
922.05  0       0
922.02  0       0
921.99  0       0
921.96  0.20299 0
921.93  0.20317 0
921.9   0.20334 0
921.87  0.20352 0
921.84  0.20369 0
921.81  0.20387 0
921.78  0.20404 0
921.75  0.20422 0
921.72  0.20439 0
921.69  0.20456 0
921.66  0.20474 0
921.63  0.20491 0
921.6   0.20509 0
921.57  0.20526 0
921.54  0.20544 0
921.51  0.20561 0
921.48  0.20579 0
921.45  0.20596 0
921.42  0.20614 0
921.39  0.20631 0
921.36  0.20648 0
921.33  0.20666 0
921.3   0.20683 0
921.27  0.20701 0
921.24  0.20718 0
921.21  0.20736 0
921.18  0.20753 0
921.15  0.20771 0
921.12  0.20788 0
921.09  0.20806 0
921.06  0.20823 0
921.03  0.20841 0
921     0.20858 0
920.97  0.20875 0
920.94  0.20893 0
920.91  0.2091  0
920.88  0.20928 0
920.85  0.20945 0
920.82  0.20963 0
920.79  0.2098  0
920.76  0.20998 0
920.73  0.21015 0
920.7   0.21033 0
920.67  0.2105  0
920.64  0.21068 0
920.61  0.21085 0
920.58  0.21102 0
920.55  0.2112  0
920.52  0.21137 0
920.49  0.21155 0
920.46  0.21172 0
920.43  0.2119  0
920.4   0.21207 0
920.37  0.21225 0
920.34  0.21242 0
920.31  0.2126  0
920.28  0.21277 0
920.25  0.21294 0
920.22  0.21312 0
920.19  0.21329 0
920.16  0.21347 0
920.13  0.21364 0
920.1   0.21382 0
920.07  0.21399 0
920.04  0.21417 0
920.01  0       0
919.98  0       0
919.95  0       0
919.92  0       0
919.89  0       0
919.86  0       0
919.83  0       0
919.8   0       0
919.77  0       0
919.74  0       0
919.71  0       0
919.68  0       0
919.65  0       0
919.62  0       0
919.59  0       0
919.56  0       0
919.53  0       0
919.5   0       0
919.47  0       0
919.44  0       0
919.41  0       0
919.38  0       0
919.35  0       0
919.32  0       0
919.29  0       0
919.26  0       0
919.23  0       0
919.2   0       0
919.17  0       0
919.14  0       0
919.11  0       0
919.08  0       0
919.05  0       0
919.02  0       0
918.99  0       0
918.96  0       0
918.93  0       0
918.9   0       0
918.87  0       0
918.84  0       0
918.81  0       0
918.78  0       0
918.75  0       0
918.72  0       0
918.69  0       0
918.66  0       0
918.63  0       0
918.6   0       0
918.57  0       0
918.54  0       0
918.51  0       0
918.48  0       0
918.45  0       0
918.42  0       0
918.39  0       0
918.36  0       0
918.33  0       0
918.3   0       0
918.27  0       0
918.24  0       0
918.21  0       0
918.18  0       0
918.15  0       0
918.12  0       0
918.09  0       0
918.06  0       0
918.03  0       0
918     0       0
917.97  0       0
917.94  0       0
917.91  0       0
917.88  0       0
917.85  0       0
917.82  0       0
917.79  0       0
917.76  0       0
917.73  0       0
917.7   0       0
917.67  0       0
917.64  0       0
917.61  0       0
917.58  0       0
917.55  0       0
917.52  0       0
917.49  0       0
917.46  0       0
917.43  0       0
917.4   0       0
917.37  0       0
917.34  0       0
917.31  0       0
917.28  0       0
917.25  0       0
917.22  0       0
917.19  0       0
917.16  0       0
917.13  0       0
917.1   0       0
917.07  0       0
917.04  0       0
917.01  0       0
916.98  0       0
916.95  0       0
916.92  0       0
916.89  0       0
916.86  0       0
916.83  0       0
916.8   0       0
916.77  0       0
916.74  0       0
916.71  0       0
916.68  0       0
916.65  0       0
916.62  0       0
916.59  0       0
916.56  0       0
916.53  0       0
916.5   0       0
916.47  0       0
916.44  0       0
916.41  0       0
916.38  0       0
916.35  0       0
916.32  0       0
916.29  0       0
916.26  0       0
916.23  0       0
916.2   0       0
916.17  0       0
916.14  0       0
916.11  0       0
916.08  0       0
916.05  0       0
916.02  0       0
915.99  0       0
915.96  0       0
915.93  0       0
915.9   0       0
915.87  0       0
915.84  0       0
915.81  0       0
915.78  0       0
915.75  0       0
915.72  0       0
915.69  0       0
915.66  0       0
915.63  0       0
915.6   0       0
915.57  0       0
915.54  0       0
915.51  0       0
915.48  0       0
915.45  0       0
915.42  0       0
915.39  0       0
915.36  0       0
915.33  0       0
915.3   0       0
915.27  0       0
915.24  0       0
915.21  0       0
915.18  0       0
915.15  0       0
915.12  0       0
915.09  0       0
915.06  0       0
915.03  0       0
915     0       0
914.97  0       0
914.94  0       0
914.91  0       0
914.88  0       0
914.85  0       0
914.82  0       0
914.79  0       0
914.76  0       0
914.73  0       0
914.7   0       0
914.67  0       0
914.64  0       0
914.61  0       0
914.58  0       0
914.55  0       0
914.52  0       0
914.49  0       0
914.46  0       0
914.43  0       0
914.4   0       0
914.37  0       0
914.34  0       0
914.31  0       0
914.28  0       0
914.25  0       0
914.22  0       0
914.19  0       0
914.16  0       0
914.13  0       0
914.1   0       0
914.07  0       0
914.04  0       0
914.01  0       0
913.98  0       0
913.95  0       0
913.92  0       0
913.89  0       0
913.86  0       0
913.83  0       0
913.8   0       0
913.77  0       0
913.74  0       0
913.71  0       0
913.68  0       0
913.65  0       0
913.62  0       0
913.59  0       0
913.56  0       0
913.53  0       0
913.5   0       0
913.47  0       0
913.44  0       0
913.41  0       0
913.38  0       0
913.35  0       0
913.32  0       0
913.29  0       0
913.26  0       0
913.23  0       0
913.2   0       0
913.17  0       0
913.14  0       0
913.11  0       0
913.08  0       0
913.05  0       0
913.02  0       0
912.99  0.2552  0
912.96  0.25537 0
912.93  0.25555 0
912.9   0.25572 0
912.87  0.2559  0
912.84  0.25607 0
912.81  0.25625 0
912.78  0.25642 0
912.75  0.2566  0
912.72  0.25677 0
912.69  0.25694 0
912.66  0.25712 0
912.63  0.25729 0
912.6   0.25747 0
912.57  0.25764 0
912.54  0.25782 0
912.51  0.25799 0
912.48  0.25817 0
912.45  0.25834 0
912.42  0.25852 0
912.39  0.25869 0
912.36  0.25886 0
912.33  0.25904 0
912.3   0.25921 0
912.27  0.25939 0
912.24  0.25956 0
912.21  0.25974 0
912.18  0.25991 0
912.15  0.26009 0
912.12  0.26026 0
912.09  0.26044 0
912.06  0.26061 0
912.03  0.26079 0
912     0.26096 0
911.97  0.26113 0
911.94  0.26131 0
911.91  0.26148 0
911.88  0.26166 0
911.85  0.26183 0
911.82  0.26201 0
911.79  0.26218 0
911.76  0.26236 0
911.73  0.26253 0
911.7   0.26271 0
911.67  0.26288 0
911.64  0.26306 0
911.61  0.26323 0
911.58  0.2634  0
911.55  0.26358 0
911.52  0.26375 0
911.49  0.26393 0
911.46  0.2641  0
911.43  0.26428 0
911.4   0.26445 0
911.37  0.26463 0
911.34  0.2648  0
911.31  0.26498 0
911.28  0.26515 0
911.25  0.26532 0
911.22  0.2655  0
911.19  0.26567 0
911.16  0.26585 0
911.13  0.26602 0
911.1   0.2662  0
911.07  0.26637 0
911.04  0.26655 0
911.01  0.26672 0
910.98  0.2669  0
910.95  0.26707 0
910.92  0.26725 0
910.89  0.26742 0
910.86  0.26759 0
910.83  0.26777 0
910.8   0.26794 0
910.77  0.26812 0
910.74  0.26829 0
910.71  0.26847 0
910.68  0.26864 0
910.65  0.26882 0
910.62  0.26899 0
910.59  0.26917 0
910.56  0.26934 0
910.53  0.26952 0
910.5   0.26969 0
910.47  0.26986 0
910.44  0.27004 0
910.41  0.27021 0
910.38  0.27039 0
910.35  0.27056 0
910.32  0.27074 0
910.29  0.27091 0
910.26  0.27109 0
910.23  0.27126 0
910.2   0.27144 0
910.17  0.27161 0
910.14  0.27179 0
910.11  0.27196 0
910.08  0.27213 0
910.05  0.27231 0
910.02  0.27248 0
909.99  0.27266 0
909.96  0.27283 0
909.93  0.27301 0
909.9   0.27318 0
909.87  0.27336 0
909.84  0.27353 0
909.81  0.27371 0
909.78  0.27388 0
909.75  0.27405 0
909.72  0.27423 0
909.69  0.2744  0
909.66  0.27458 0
909.63  0.27475 0
909.6   0.27493 0
909.57  0.2751  0
909.54  0.27528 0
909.51  0.27545 0
909.48  0.27563 0
909.45  0.2758  0
909.42  0.27598 0
909.39  0.27615 0
909.36  0.27632 0
909.33  0.2765  0
909.3   0.27667 0
909.27  0.27685 0
909.24  0.27702 0
909.21  0.2772  0
909.18  0.27737 0
909.15  0.27755 0
909.12  0.27772 0
909.09  0.2779  0
909.06  0.27807 0
909.03  0.27825 0
909     0.27842 0
908.97  0.27859 0
908.94  0.27877 0
908.91  0.27894 0
908.88  0.27912 0
908.85  0.27929 0
908.82  0.27947 0
908.79  0.27964 0
908.76  0.27982 0
908.73  0.27999 0
908.7   0.28017 0
908.67  0.28034 0
908.64  0.28052 0
908.61  0.28069 0
908.58  0.28086 0
908.55  0.28104 0
908.52  0.28121 0
908.49  0.28139 0
908.46  0.28156 0
908.43  0.28174 0
908.4   0.28191 0
908.37  0.28209 0
908.34  0.28226 0
908.31  0.28244 0
908.28  0.28261 0
908.25  0.28279 0
908.22  0.28296 0
908.19  0.28313 0
908.16  0.28331 0
908.13  0.28348 0
908.1   0.28366 0
908.07  0.28383 0
908.04  0.28401 0
908.01  0.28418 0
907.98  0.28436 0
907.95  0.28453 0
907.92  0.28471 0
907.89  0.28488 0
907.86  0.28505 0
907.83  0.28523 0
907.8   0.2854  0
907.77  0.28558 0
907.74  0.28575 0
907.71  0.28593 0
907.68  0.2861  0
907.65  0.28628 0
907.62  0.28645 0
907.59  0.28663 0
907.56  0.2868  0
907.53  0.28698 0
907.5   0.28715 0
907.47  0.28732 0
907.44  0.2875  0
907.41  0.28767 0
907.38  0.28785 0
907.35  0.28802 0
907.32  0.2882  0
907.29  0.28837 0
907.26  0.28855 0
907.23  0.28872 0
907.2   0.2889  0
907.17  0.28907 0
907.14  0.28925 0
907.11  0.28942 0
907.08  0.28959 0
907.05  0.28977 0
907.02  0.28994 0
906.99  0.29012 0
906.96  0.29029 0
906.93  0.29047 0
906.9   0.29064 0
906.87  0.29082 0
906.84  0.29099 0
906.81  0.29117 0
906.78  0.29134 0
906.75  0.29152 0
906.72  0.29169 0
906.69  0.29186 0
906.66  0.29204 0
906.63  0.29221 0
906.6   0.29239 0
906.57  0.29256 0
906.54  0.29274 0
906.51  0.29291 0
906.48  0.29309 0
906.45  0.29326 0
906.42  0.29344 0
906.39  0.29361 0
906.36  0.29378 0
906.33  0.29396 0
906.3   0.29413 0
906.27  0.29431 0
906.24  0.29448 0
906.21  0.29466 0
906.18  0.29483 0
906.15  0.29501 0
906.12  0.29518 0
906.09  0.29536 0
906.06  0.29553 0
906.03  0.29571 0
906     0.29588 0
905.97  0.29605 0
905.94  0.29623 0
905.91  0.2964  0
905.88  0.29658 0
905.85  0.29675 0
905.82  0.29693 0
905.79  0.2971  0
905.76  0.29728 0
905.73  0.29745 0
905.7   0.29763 0
905.67  0.2978  0
905.64  0.29798 0
905.61  0.29815 0
905.58  0.29832 0
905.55  0.2985  0
905.52  0.29867 0
905.49  0.29885 0
905.46  0.29902 0
905.43  0.2992  0
905.4   0.29937 0
905.37  0.29955 0
905.34  0.29972 0
905.31  0.2999  0
905.28  0.30007 0
905.25  0.30024 0
905.22  0.30042 0
905.19  0.30059 0
905.16  0.30077 0
905.13  0.30094 0
905.1   0.30112 0
905.07  0.30129 0
905.04  0.30147 0
905.01  0.30164 0
904.98  0.30182 0
904.95  0.30199 0
904.92  0.30217 0
904.89  0.30234 0
904.86  0.30251 0
904.83  0.30269 0
904.8   0.30286 0
904.77  0.30304 0
904.74  0.30321 0
904.71  0.30339 0
904.68  0.30356 0
904.65  0.30374 0
904.62  0.30391 0
904.59  0.30409 0
904.56  0.30426 0
904.53  0.30444 0
904.5   0.30461 0
904.47  0.30478 0
904.44  0.30496 0
904.41  0.30513 0
904.38  0.30531 0
904.35  0.30548 0
904.32  0.30566 0
904.29  0.30583 0
904.26  0.30601 0
904.23  0.30618 0
904.2   0.30636 0
904.17  0.30653 0
904.14  0.30671 0
904.11  0.30688 0
904.08  0.30705 0
904.05  0.30723 0
904.02  0.3074  0
903.99  0.30758 0
903.96  0.30775 0
903.93  0.30793 0
903.9   0.3081  0
903.87  0.30828 0
903.84  0.30845 0
903.81  0.30863 0
903.78  0.3088  0
903.75  0.30897 0
903.72  0.30915 0
903.69  0.30932 0
903.66  0.3095  0
903.63  0.30967 0
903.6   0.30985 0
903.57  0.31002 0
903.54  0.3102  0
903.51  0.31037 0
903.48  0.31055 0
903.45  0.31072 0
903.42  0.3109  0
903.39  0.31107 0
903.36  0.31124 0
903.33  0.31142 0
903.3   0.31159 0
903.27  0.31177 0
903.24  0.31194 0
903.21  0.31212 0
903.18  0.31229 0
903.15  0.31247 0
903.12  0.31264 0
903.09  0.31282 0
903.06  0.31299 0
903.03  0.31317 0
903     0.31334 0
902.97  0.31351 0
902.94  0.31369 0
902.91  0.31386 0
902.88  0.31404 0
902.85  0.31421 0
902.82  0.31439 0
902.79  0.31456 0
902.76  0.31474 0
902.73  0.31491 0
902.7   0.31509 0
902.67  0.31526 0
902.64  0.31544 0
902.61  0.31561 0
902.58  0.31578 0
902.55  0.31596 0
902.52  0.31613 0
902.49  0.31631 0
902.46  0.31648 0
902.43  0.31666 0
902.4   0.31683 0
902.37  0.31701 0
902.34  0.31718 0
902.31  0.31736 0
902.28  0.31753 0
902.25  0.31771 0
902.22  0.31788 0
902.19  0.31805 0
902.16  0.31823 0
902.13  0.3184  0
902.1   0.31858 0
902.07  0.31875 0
902.04  0.31893 0
902.01  0.3191  0
901.98  0.31928 0
901.95  0.31945 0
901.92  0.31963 0
901.89  0.3198  0
901.86  0.31997 0
901.83  0.32015 0
901.8   0.32032 0
901.77  0.3205  0
901.74  0.32067 0
901.71  0.32085 0
901.68  0.32102 0
901.65  0.3212  0
901.62  0.32137 0
901.59  0.32155 0
901.56  0.32172 0
901.53  0.3219  0
901.5   0.32207 0
901.47  0.32224 0
901.44  0.32242 0
901.41  0.32259 0
901.38  0.32277 0
901.35  0.32294 0
901.32  0.32312 0
901.29  0.32329 0
901.26  0.32347 0
901.23  0.32364 0
901.2   0.32382 0
901.17  0.32399 0
901.14  0.32417 0
901.11  0.32434 0
901.08  0.32451 0
901.05  0.32469 0
901.02  0.32486 0
900.99  0.32504 0
900.96  0.32521 0
900.93  0.32539 0
900.9   0.32556 0
900.87  0.32574 0
900.84  0.32591 0
900.81  0.32609 0
900.78  0.32626 0
900.75  0.32643 0
900.72  0.32661 0
900.69  0.32678 0
900.66  0.32696 0
900.63  0.32713 0
900.6   0.32731 0
900.57  0.32748 0
900.54  0.32766 0
900.51  0.32783 0
900.48  0.32801 0
900.45  0.32818 0
900.42  0.32836 0
900.39  0.32853 0
900.36  0.3287  0
900.33  0.32888 0
900.3   0.32905 0
900.27  0.32923 0
900.24  0.3294  0
900.21  0.32958 0
900.18  0.32975 0
900.15  0.32993 0
900.12  0.3301  0
900.09  0.33028 0
900.06  0.33045 0
900.03  0.33063 0
900     0.3308  0
899.97  0.33097 0
899.94  0.33115 0
899.91  0.33132 0
899.88  0.3315  0
899.85  0.33167 0
899.82  0.33185 0
899.79  0.33202 0
899.76  0.3322  0
899.73  0.33237 0
899.7   0.33255 0
899.67  0.33272 0
899.64  0.3329  0
899.61  0.33307 0
899.58  0.33324 0
899.55  0.33342 0
899.52  0.33359 0
899.49  0.33377 0
899.46  0.33394 0
899.43  0.33412 0
899.4   0.33429 0
899.37  0.33447 0
899.34  0.33464 0
899.31  0.33482 0
899.28  0.33499 0
899.25  0.33516 0
899.22  0.33534 0
899.19  0.33551 0
899.16  0.33569 0
899.13  0.33586 0
899.1   0.33604 0
899.07  0.33621 0
899.04  0.33639 0
899.01  0.33656 0
898.98  0.33674 0
898.95  0.33691 0
898.92  0.33709 0
898.89  0.33726 0
898.86  0.33743 0
898.83  0.33761 0
898.8   0.33778 0
898.77  0.33796 0
898.74  0.33813 0
898.71  0.33831 0
898.68  0.33848 0
898.65  0.33866 0
898.62  0.33883 0
898.59  0.33901 0
898.56  0.33918 0
898.53  0.33936 0
898.5   0.33953 0
898.47  0.3397  0
898.44  0.33988 0
898.41  0.34005 0
898.38  0.34023 0
898.35  0.3404  0
898.32  0.34058 0
898.29  0.34075 0
898.26  0.34093 0
898.23  0.3411  0
898.2   0.34128 0
898.17  0.34145 0
898.14  0.34163 0
898.11  0.3418  0
898.08  0.34197 0
898.05  0.34215 0
898.02  0.34232 0
897.99  0.3425  0
897.96  0.34267 0
897.93  0.34285 0
897.9   0.34302 0
897.87  0.3432  0
897.84  0.34337 0
897.81  0.34355 0
897.78  0.34372 0
897.75  0.3439  0
897.72  0.34407 0
897.69  0.34424 0
897.66  0.34442 0
897.63  0.34459 0
897.6   0.34477 0
897.57  0.34494 0
897.54  0.34512 0
897.51  0.34529 0
897.48  0.34547 0
897.45  0.34564 0
897.42  0.34582 0
897.39  0.34599 0
897.36  0.34616 0
897.33  0.34634 0
897.3   0.34651 0
897.27  0.34669 0
897.24  0.34686 0
897.21  0.34704 0
897.18  0.34721 0
897.15  0.34739 0
897.12  0.34756 0
897.09  0.34774 0
897.06  0.34791 0
897.03  0.34809 0
897     0.34826 0
896.97  0.34843 0
896.94  0.34861 0
896.91  0.34878 0
896.88  0.34896 0
896.85  0.34913 0
896.82  0.34931 0
896.79  0.34948 0
896.76  0.34966 0
896.73  0.34983 0
896.7   0.35001 0
896.67  0.35018 0
896.64  0.35036 0
896.61  0.35053 0
896.58  0.3507  0
896.55  0.35088 0
896.52  0.35105 0
896.49  0.35123 0
896.46  0.3514  0
896.43  0.35158 0
896.4   0.35175 0
896.37  0.35193 0
896.34  0.3521  0
896.31  0.35228 0
896.28  0.35245 0
896.25  0.35263 0
896.22  0.3528  0
896.19  0.35297 0
896.16  0.35315 0
896.13  0.35332 0
896.1   0.3535  0
896.07  0.35367 0
896.04  0.35385 0
896.01  0.35402 0
895.98  0.3542  0
895.95  0.35437 0
895.92  0.35455 0
895.89  0.35472 0
895.86  0.35489 0
895.83  0.35507 0
895.8   0.35524 0
895.77  0.35542 0
895.74  0.35559 0
895.71  0.35577 0
895.68  0.35594 0
895.65  0.35612 0
895.62  0.35629 0
895.59  0.35647 0
895.56  0.35664 0
895.53  0.35682 0
895.5   0.35699 0
895.47  0.35716 0
895.44  0.35734 0
895.41  0.35751 0
895.38  0.35769 0
895.35  0.35786 0
895.32  0.35804 0
895.29  0.35821 0
895.26  0.35839 0
895.23  0.35856 0
895.2   0.35874 0
895.17  0.35891 0
895.14  0.35909 0
895.11  0.35926 0
895.08  0.35943 0
895.05  0.35961 0
895.02  0.35978 0
894.99  0.35996 0
894.96  0.36013 0
894.93  0.36031 0
894.9   0.36048 0
894.87  0.36066 0
894.84  0.36083 0
894.81  0.36101 0
894.78  0.36118 0
894.75  0.36135 0
894.72  0.36153 0
894.69  0.3617  0
894.66  0.36188 0
894.63  0.36205 0
894.6   0.36223 0
894.57  0.3624  0
894.54  0.36258 0
894.51  0.36275 0
894.48  0.36293 0
894.45  0.3631  0
894.42  0.36328 0
894.39  0.36345 0
894.36  0.36362 0
894.33  0.3638  0
894.3   0.36397 0
894.27  0.36415 0
894.24  0.36432 0
894.21  0.3645  0
894.18  0.36467 0
894.15  0.36485 0
894.12  0.36502 0
894.09  0.3652  0
894.06  0.36537 0
894.03  0.36555 0
894     0.36572 0
893.97  0.36589 0
893.94  0.36607 0
893.91  0.36624 0
893.88  0.36642 0
893.85  0.36659 0
893.82  0.36677 0
893.79  0.36694 0
893.76  0.36712 0
893.73  0.36729 0
893.7   0.36747 0
893.67  0.36764 0
893.64  0.36782 0
893.61  0.36799 0
893.58  0.36816 0
893.55  0.36834 0
893.52  0.36851 0
893.49  0.36869 0
893.46  0.36886 0
893.43  0.36904 0
893.4   0.36921 0
893.37  0.36939 0
893.34  0.36956 0
893.31  0.36974 0
893.28  0.36991 0
893.25  0.37008 0
893.22  0.37026 0
893.19  0.37043 0
893.16  0.37061 0
893.13  0.37078 0
893.1   0.37096 0
893.07  0.37113 0
893.04  0.37131 0
893.01  0.37148 0
892.98  0.37166 0
892.95  0.37183 0
892.92  0.37201 0
892.89  0.37218 0
892.86  0.37235 0
892.83  0.37253 0
892.8   0.3727  0
892.77  0.37288 0
892.74  0.37305 0
892.71  0.37323 0
892.68  0.3734  0
892.65  0.37358 0
892.62  0.37375 0
892.59  0.37393 0
892.56  0.3741  0
892.53  0.37428 0
892.5   0.37445 0
892.47  0.37462 0
892.44  0.3748  0
892.41  0.37497 0
892.38  0.37515 0
892.35  0.37532 0
892.32  0.3755  0
892.29  0.37567 0
892.26  0.37585 0
892.23  0.37602 0
892.2   0.3762  0
892.17  0.37637 0
892.14  0.37655 0
892.11  0.37672 0
892.08  0.37689 0
892.05  0.37707 0
892.02  0.37724 0
891.99  0.37742 0
891.96  0.37759 0
891.93  0.37777 0
891.9   0.37794 0
891.87  0.37812 0
891.84  0.37829 0
891.81  0.37847 0
891.78  0.37864 0
891.75  0.37882 0
891.72  0.37899 0
891.69  0.37916 0
891.66  0.37934 0
891.63  0.37951 0
891.6   0.37969 0
891.57  0.37986 0
891.54  0.38004 0
891.51  0.38021 0
891.48  0.38039 0
891.45  0.38056 0
891.42  0.38074 0
891.39  0.38091 0
891.36  0.38108 0
891.33  0.38126 0
891.3   0.38143 0
891.27  0.38161 0
891.24  0.38178 0
891.21  0.38196 0
891.18  0.38213 0
891.15  0.38231 0
891.12  0.38248 0
891.09  0.38266 0
891.06  0.38283 0
891.03  0.38301 0
891     0.38318 0
890.97  0.38335 0
890.94  0.38353 0
890.91  0.3837  0
890.88  0.38388 0
890.85  0.38405 0
890.82  0.38423 0
890.79  0.3844  0
890.76  0.38458 0
890.73  0.38475 0
890.7   0.38493 0
890.67  0.3851  0
890.64  0.38528 0
890.61  0.38545 0
890.58  0.38562 0
890.55  0.3858  0
890.52  0.38597 0
890.49  0.38615 0
890.46  0.38632 0
890.43  0.3865  0
890.4   0.38667 0
890.37  0.38685 0
890.34  0.38702 0
890.31  0.3872  0
890.28  0.38737 0
890.25  0.38754 0
890.22  0.38772 0
890.19  0.38789 0
890.16  0.38807 0
890.13  0.38824 0
890.1   0.38842 0
890.07  0.38859 0
890.04  0.38877 0
890.01  0.38894 0
889.98  0.38912 0
889.95  0.38929 0
889.92  0.38947 0
889.89  0.38964 0
889.86  0.38981 0
889.83  0.38999 0
889.8   0.39016 0
889.77  0.39034 0
889.74  0.39051 0
889.71  0.39069 0
889.68  0.39086 0
889.65  0.39104 0
889.62  0.39121 0
889.59  0.39139 0
889.56  0.39156 0
889.53  0.39174 0
889.5   0.39191 0
889.47  0.39208 0
889.44  0.39226 0
889.41  0.39243 0
889.38  0.39261 0
889.35  0.39278 0
889.32  0.39296 0
889.29  0.39313 0
889.26  0.39331 0
889.23  0.39348 0
889.2   0.39366 0
889.17  0.39383 0
889.14  0.39401 0
889.11  0.39418 0
889.08  0.39435 0
889.05  0.39453 0
889.02  0.3947  0
888.99  0.39488 0
888.96  0.39505 0
888.93  0.39523 0
888.9   0.3954  0
888.87  0.39558 0
888.84  0.39575 0
888.81  0.39593 0
888.78  0.3961  0
888.75  0.39627 0
888.72  0.39645 0
888.69  0.39662 0
888.66  0.3968  0
888.63  0.39697 0
888.6   0.39715 0
888.57  0.39732 0
888.54  0.3975  0
888.51  0.39767 0
888.48  0.39785 0
888.45  0.39802 0
888.42  0.3982  0
888.39  0.39837 0
888.36  0.39854 0
888.33  0.39872 0
888.3   0.39889 0
888.27  0.39907 0
888.24  0.39924 0
888.21  0.39942 0
888.18  0.39959 0
888.15  0.39977 0
888.12  0.39994 0
888.09  0.40012 0
888.06  0.40029 0
888.03  0.40047 0
888     0.40064 0
887.97  0.40081 0
887.94  0.40099 0
887.91  0.40116 0
887.88  0.40134 0
887.85  0.40151 0
887.82  0.40169 0
887.79  0.40186 0
887.76  0.40204 0
887.73  0.40221 0
887.7   0.40239 0
887.67  0.40256 0
887.64  0.40274 0
887.61  0.40291 0
887.58  0.40308 0
887.55  0.40326 0
887.52  0.40343 0
887.49  0.40361 0
887.46  0.40378 0
887.43  0.40396 0
887.4   0.40413 0
887.37  0.40431 0
887.34  0.40448 0
887.31  0.40466 0
887.28  0.40483 0
887.25  0.40501 0
887.22  0.40518 0
887.19  0.40535 0
887.16  0.40553 0
887.13  0.4057  0
887.1   0.40588 0
887.07  0.40605 0
887.04  0.40623 0
887.01  0.4064  0
886.98  0.40658 0
886.95  0.40675 0
886.92  0.40693 0
886.89  0.4071  0
886.86  0.40727 0
886.83  0.40745 0
886.8   0.40762 0
886.77  0.4078  0
886.74  0.40797 0
886.71  0.40815 0
886.68  0.40832 0
886.65  0.4085  0
886.62  0.40867 0
886.59  0.40885 0
886.56  0.40902 0
886.53  0.4092  0
886.5   0.40937 0
886.47  0.40954 0
886.44  0.40972 0
886.41  0.40989 0
886.38  0.41007 0
886.35  0.41024 0
886.32  0.41042 0
886.29  0.41059 0
886.26  0.41077 0
886.23  0.41094 0
886.2   0.41112 0
886.17  0.41129 0
886.14  0.41147 0
886.11  0.41164 0
886.08  0.41181 0
886.05  0.41199 0
886.02  0.41216 0
885.99  0.41234 0
885.96  0.41251 0
885.93  0.41269 0
885.9   0.41286 0
885.87  0.41304 0
885.84  0.41321 0
885.81  0.41339 0
885.78  0.41356 0
885.75  0.41374 0
885.72  0.41391 0
885.69  0.41408 0
885.66  0.41426 0
885.63  0.41443 0
885.6   0.41461 0
885.57  0.41478 0
885.54  0.41496 0
885.51  0.41513 0
885.48  0.41531 0
885.45  0.41548 0
885.42  0.41566 0
885.39  0.41583 0
885.36  0.416   0
885.33  0.41618 0
885.3   0.41635 0
885.27  0.41653 0
885.24  0.4167  0
885.21  0.41688 0
885.18  0.41705 0
885.15  0.41723 0
885.12  0.4174  0
885.09  0.41758 0
885.06  0.41775 0
885.03  0.41793 0
885     0.4181  0
884.97  0.41827 0
884.94  0.41845 0
884.91  0.41862 0
884.88  0.4188  0
884.85  0.41897 0
884.82  0.41915 0
884.79  0.41932 0
884.76  0.4195  0
884.73  0.41967 0
884.7   0.41985 0
884.67  0.42002 0
884.64  0.4202  0
884.61  0.42037 0
884.58  0.42054 0
884.55  0.42072 0
884.52  0.42089 0
884.49  0.42107 0
884.46  0.42124 0
884.43  0.42142 0
884.4   0.42159 0
884.37  0.42177 0
884.34  0.42194 0
884.31  0.42212 0
884.28  0.42229 0
884.25  0.42246 0
884.22  0.42264 0
884.19  0.42281 0
884.16  0.42299 0
884.13  0.42316 0
884.1   0.42334 0
884.07  0.42351 0
884.04  0.42369 0
884.01  0.42386 0
883.98  0.42404 0
883.95  0.42421 0
883.92  0.42439 0
883.89  0.42456 0
883.86  0.42473 0
883.83  0.42491 0
883.8   0.42508 0
883.77  0.42526 0
883.74  0.42543 0
883.71  0.42561 0
883.68  0.42578 0
883.65  0.42596 0
883.62  0.42613 0
883.59  0.42631 0
883.56  0.42648 0
883.53  0.42666 0
883.5   0.42683 0
883.47  0.427   0
883.44  0.42718 0
883.41  0.42735 0
883.38  0.42753 0
883.35  0.4277  0
883.32  0.42788 0
883.29  0.42805 0
883.26  0.42823 0
883.23  0.4284  0
883.2   0.42858 0
883.17  0.42875 0
883.14  0.42893 0
883.11  0.4291  0
883.08  0.42927 0
883.05  0.42945 0
883.02  0.42962 0
882.99  0.4298  0
882.96  0.42997 0
882.93  0.43015 0
882.9   0.43032 0
882.87  0.4305  0
882.84  0.43067 0
882.81  0.43085 0
882.78  0.43102 0
882.75  0.43119 0
882.72  0.43137 0
882.69  0.43154 0
882.66  0.43172 0
882.63  0.43189 0
882.6   0.43207 0
882.57  0.43224 0
882.54  0.43242 0
882.51  0.43259 0
882.48  0.43277 0
882.45  0.43294 0
882.42  0.43312 0
882.39  0.43329 0
882.36  0.43346 0
882.33  0.43364 0
882.3   0.43381 0
882.27  0.43399 0
882.24  0.43416 0
882.21  0.43434 0
882.18  0.43451 0
882.15  0.43469 0
882.12  0.43486 0
882.09  0.43504 0
882.06  0.43521 0
882.03  0.43539 0
882     0.43556 0
881.97  0.43573 0
881.94  0.43591 0
881.91  0.43608 0
881.88  0.43626 0
881.85  0.43643 0
881.82  0.43661 0
881.79  0.43678 0
881.76  0.43696 0
881.73  0.43713 0
881.7   0.43731 0
881.67  0.43748 0
881.64  0.43766 0
881.61  0.43783 0
881.58  0.438   0
881.55  0.43818 0
881.52  0.43835 0
881.49  0.43853 0
881.46  0.4387  0
881.43  0.43888 0
881.4   0.43905 0
881.37  0.43923 0
881.34  0.4394  0
881.31  0.43958 0
881.28  0.43975 0
881.25  0.43993 0
881.22  0.4401  0
881.19  0.44027 0
881.16  0.44045 0
881.13  0.44062 0
881.1   0.4408  0
881.07  0.44097 0
881.04  0.44115 0
881.01  0.44132 0
880.98  0.4415  0
880.95  0.44167 0
880.92  0.44185 0
880.89  0.44202 0
880.86  0.44219 0
880.83  0.44237 0
880.8   0.44254 0
880.77  0.44272 0
880.74  0.44289 0
880.71  0.44307 0
880.68  0.44324 0
880.65  0.44342 0
880.62  0.44359 0
880.59  0.44377 0
880.56  0.44394 0
880.53  0.44412 0
880.5   0.44429 0
880.47  0.44446 0
880.44  0.44464 0
880.41  0.44481 0
880.38  0.44499 0
880.35  0.44516 0
880.32  0.44534 0
880.29  0.44551 0
880.26  0.44569 0
880.23  0.44586 0
880.2   0.44604 0
880.17  0.44621 0
880.14  0.44639 0
880.11  0.44656 0
880.08  0.44673 0
880.05  0.44691 0
880.02  0.44708 0
879.99  0.44726 0
879.96  0.44743 0
879.93  0.44761 0
879.9   0.44778 0
879.87  0.44796 0
879.84  0.44813 0
879.81  0.44831 0
879.78  0.44848 0
879.75  0.44866 0
879.72  0.44883 0
879.69  0.449   0
879.66  0.44918 0
879.63  0.44935 0
879.6   0.44953 0
879.57  0.4497  0
879.54  0.44988 0
879.51  0.45005 0
879.48  0.45023 0
879.45  0.4504  0
879.42  0.45058 0
879.39  0.45075 0
879.36  0.45092 0
879.33  0.4511  0
879.3   0.45127 0
879.27  0.45145 0
879.24  0.45162 0
879.21  0.4518  0
879.18  0.45197 0
879.15  0.45215 0
879.12  0.45232 0
879.09  0.4525  0
879.06  0.45267 0
879.03  0.45285 0
879     0.45302 0
878.97  0.45319 0
878.94  0.45337 0
878.91  0.45354 0
878.88  0.45372 0
878.85  0.45389 0
878.82  0.45407 0
878.79  0.45424 0
878.76  0.45442 0
878.73  0.45459 0
878.7   0.45477 0
878.67  0.45494 0
878.64  0.45512 0
878.61  0.45529 0
878.58  0.45546 0
878.55  0.45564 0
878.52  0.45581 0
878.49  0.45599 0
878.46  0.45616 0
878.43  0.45634 0
878.4   0.45651 0
878.37  0.45669 0
878.34  0.45686 0
878.31  0.45704 0
878.28  0.45721 0
878.25  0.45738 0
878.22  0.45756 0
878.19  0.45773 0
878.16  0.45791 0
878.13  0.45808 0
878.1   0.45826 0
878.07  0.45843 0
878.04  0.45861 0
878.01  0.45878 0
877.98  0.45896 0
877.95  0.45913 0
877.92  0.45931 0
877.89  0.45948 0
877.86  0.45965 0
877.83  0.45983 0
877.8   0.46    0
877.77  0.46018 0
877.74  0.46035 0
877.71  0.46053 0
877.68  0.4607  0
877.65  0.46088 0
877.62  0.46105 0
877.59  0.46123 0
877.56  0.4614  0
877.53  0.46158 0
877.5   0.46175 0
877.47  0.46192 0
877.44  0.4621  0
877.41  0.46227 0
877.38  0.46245 0
877.35  0.46262 0
877.32  0.4628  0
877.29  0.46297 0
877.26  0.46315 0
877.23  0.46332 0
877.2   0.4635  0
877.17  0.46367 0
877.14  0.46385 0
877.11  0.46402 0
877.08  0.46419 0
877.05  0.46437 0
877.02  0.46454 0
876.99  0.46472 0
876.96  0.46489 0
876.93  0.46507 0
876.9   0.46524 0
876.87  0.46542 0
876.84  0.46559 0
876.81  0.46577 0
876.78  0.46594 0
876.75  0.46612 0
876.72  0.46629 0
876.69  0.46646 0
876.66  0.46664 0
876.63  0.46681 0
876.6   0.46699 0
876.57  0.46716 0
876.54  0.46734 0
876.51  0.46751 0
876.48  0.46769 0
876.45  0.46786 0
876.42  0.46804 0
876.39  0.46821 0
876.36  0.46838 0
876.33  0.46856 0
876.3   0.46873 0
876.27  0.46891 0
876.24  0.46908 0
876.21  0.46926 0
876.18  0.46943 0
876.15  0.46961 0
876.12  0.46978 0
876.09  0.46996 0
876.06  0.47013 0
876.03  0.47031 0
876     0.47048 0
875.97  0.47065 0
875.94  0.47083 0
875.91  0.471   0
875.88  0.47118 0
875.85  0.47135 0
875.82  0.47153 0
875.79  0.4717  0
875.76  0.47188 0
875.73  0.47205 0
875.7   0.47223 0
875.67  0.4724  0
875.64  0.47258 0
875.61  0.47275 0
875.58  0.47292 0
875.55  0.4731  0
875.52  0.47327 0
875.49  0.47345 0
875.46  0.47362 0
875.43  0.4738  0
875.4   0.47397 0
875.37  0.47415 0
875.34  0.47432 0
875.31  0.4745  0
875.28  0.47467 0
875.25  0.47485 0
875.22  0.47502 0
875.19  0.47519 0
875.16  0.47537 0
875.13  0.47554 0
875.1   0.47572 0
875.07  0.47589 0
875.04  0.47607 0
875.01  0.47624 0
874.98  0.47941 0
874.95  0.48408 0
874.92  0.48874 0
874.89  0.49341 0
874.86  0.49807 0
874.83  0.50274 0
874.8   0.50741 0
874.77  0.51207 0
874.74  0.51674 0
874.71  0.5214  0
874.68  0.52607 0
874.65  0.53074 0
874.62  0.5354  0
874.59  0.54007 0
874.56  0.54473 0
874.53  0.5494  0
874.5   0.55407 0
874.47  0.55873 0
874.44  0.5634  0
874.41  0.56807 0
874.38  0.57273 0
874.35  0.5774  0
874.32  0.58206 0
874.29  0.58673 0
874.26  0.5914  0
874.23  0.59606 0
874.2   0.60073 0
874.17  0.60539 0
874.14  0.61006 0
874.11  0.61473 0
874.08  0.61939 0
874.05  0.62406 0
874.02  0.62872 0
873.99  0.63339 0
873.96  0.63806 0
873.93  0.64272 0
873.9   0.64739 0
873.87  0.65205 0
873.84  0.65672 0
873.81  0.66139 0
873.78  0.66605 0
873.75  0.67072 0
873.72  0.67538 0
873.69  0.68005 0
873.66  0.68472 0
873.63  0.68938 0
873.6   0.69405 0
873.57  0.69871 0
873.54  0.70338 0
873.51  0.70805 0
873.48  0.71271 0
873.45  0.71738 0
873.42  0.72204 0
873.39  0.72671 0
873.36  0.73138 0
873.33  0.73604 0
873.3   0.74071 0
873.27  0.74537 0
873.24  0.75004 0
873.21  0.75471 0
873.18  0.75937 0
873.15  0.76404 0
873.12  0.7687  0
873.09  0.77337 0
873.06  0.77804 0
873.03  0.7827  0
873     0.78737 0
872.97  0.79203 0
872.94  0.7967  0
872.91  0.80137 0
872.88  0.80603 0
872.85  0.8107  0
872.82  0.81536 0
872.79  0.82003 0
872.76  0.8247  0
872.73  0.82936 0
872.7   0.83403 0
872.67  0.83869 0
872.64  0.84336 0
872.61  0.84803 0
872.58  0.85269 0
872.55  0.85736 0
872.52  0.86202 0
872.49  0.86669 0
872.46  0.87136 0
872.43  0.87602 0
872.4   0.88069 0
872.37  0.88535 0
872.34  0.89002 0
872.31  0.89469 0
872.28  0.89935 0
872.25  0.90402 0
872.22  0.90868 0
872.19  0.91335 0
872.16  0.91802 0
872.13  0.92268 0
872.1   0.92735 0
872.07  0.93201 0
872.04  0.93668 0
872.01  0.94135 0
871.98  0.94601 0
871.95  0.95068 0
871.92  0.95534 0
871.89  0.96001 0
871.86  0.96468 0
871.83  0.96934 0
871.8   0.97401 0
871.77  0.97867 0
871.74  0.98334 0
871.71  0.98801 0
871.68  0.99267 0
871.65  0.99734 0
871.62  1.002   0
871.59  1.0067  0
871.56  1.0113  0
871.53  1.016   0
871.5   1.0207  0
871.47  1.0253  0
871.44  1.03    0
871.41  1.0347  0
871.38  1.0393  0
871.35  1.044   0
871.32  1.0487  0
871.29  1.0533  0
871.26  1.058   0
871.23  1.0627  0
871.2   1.0673  0
871.17  1.072   0
871.14  1.0767  0
871.11  1.0813  0
871.08  1.086   0
871.05  1.0907  0
871.02  1.0953  0
870.99  1.1     0
870.96  1.1047  0
870.93  1.1093  0
870.9   1.114   0
870.87  1.1187  0
870.84  1.1233  0
870.81  1.128   0
870.78  1.1327  0
870.75  1.1373  0
870.72  1.142   0
870.69  1.1467  0
870.66  1.1513  0
870.63  1.156   0
870.6   1.1606  0
870.57  1.1653  0
870.54  1.17    0
870.51  1.1746  0
870.48  1.1793  0
870.45  1.184   0
870.42  1.1886  0
870.39  1.1933  0
870.36  1.198   0
870.33  1.2026  0
870.3   1.2073  0
870.27  1.212   0
870.24  1.2166  0
870.21  1.2213  0
870.18  1.226   0
870.15  1.2306  0
870.12  1.2353  0
870.09  1.24    0
870.06  1.2446  0
870.03  1.2493  0
870     1.254   0
869.97  1.2586  0
869.94  1.2633  0
869.91  1.268   0
869.88  1.2726  0
869.85  1.2773  0
869.82  1.282   0
869.79  1.2866  0
869.76  1.2913  0
869.73  1.296   0
869.7   1.3006  0
869.67  1.3053  0
869.64  1.31    0
869.61  1.3146  0
869.58  1.3193  0
869.55  1.324   0
869.52  1.3286  0
869.49  1.3333  0
869.46  1.338   0
869.43  1.3426  0
869.4   1.3473  0
869.37  1.352   0
869.34  1.3566  0
869.31  1.3613  0
869.28  1.366   0
869.25  1.3706  0
869.22  1.3753  0
869.19  1.38    0
869.16  1.3846  0
869.13  1.3893  0
869.1   1.394   0
869.07  1.3986  0
869.04  1.4033  0
869.01  1.4079  0
868.98  1.4126  0
868.95  1.4173  0
868.92  1.4219  0
868.89  1.4266  0
868.86  1.4313  0
868.83  1.4359  0
868.8   1.4406  0
868.77  1.4453  0
868.74  1.4499  0
868.71  1.4546  0
868.68  1.4593  0
868.65  1.4639  0
868.62  1.4686  0
868.59  1.4733  0
868.56  1.4779  0
868.53  1.4826  0
868.5   1.4873  0
868.47  1.4919  0
868.44  1.4966  0
868.41  1.5013  0
868.38  1.5059  0
868.35  1.5106  0
868.32  1.5153  0
868.29  1.5199  0
868.26  1.5246  0
868.23  1.5293  0
868.2   1.5339  0
868.17  1.5386  0
868.14  1.5433  0
868.11  1.5479  0
868.08  1.5526  0
868.05  1.5573  0
868.02  1.5619  0
867.99  1.5666  0
867.96  1.5713  0
867.93  1.5759  0
867.9   1.5806  0
867.87  1.5853  0
867.84  1.5899  0
867.81  1.5946  0
867.78  1.5993  0
867.75  1.6039  0
867.72  1.6086  0
867.69  1.6133  0
867.66  1.6179  0
867.63  1.6226  0
867.6   1.6273  0
867.57  1.6319  0
867.54  1.6366  0
867.51  1.6412  0
867.48  1.6459  0
867.45  1.6506  0
867.42  1.6552  0
867.39  1.6599  0
867.36  1.6646  0
867.33  1.6692  0
867.3   1.6739  0
867.27  1.6786  0
867.24  1.6832  0
867.21  1.6879  0
867.18  1.6926  0
867.15  1.6972  0
867.12  1.7019  0
867.09  1.7066  0
867.06  1.7112  0
867.03  1.7159  0
867     1.7206  0
866.97  1.7252  0
866.94  1.7299  0
866.91  1.7346  0
866.88  1.7392  0
866.85  1.7439  0
866.82  1.7486  0
866.79  1.7532  0
866.76  1.7579  0
866.73  1.7626  0
866.7   1.7672  0
866.67  1.7719  0
866.64  1.7766  0
866.61  1.7812  0
866.58  1.7859  0
866.55  1.7906  0
866.52  1.7952  0
866.49  1.7999  0
866.46  1.8046  0
866.43  1.8092  0
866.4   1.8139  0
866.37  1.8186  0
866.34  1.8232  0
866.31  1.8279  0
866.28  1.8326  0
866.25  1.8372  0
866.22  1.8419  0
866.19  1.8466  0
866.16  1.8512  0
866.13  1.8559  0
866.1   1.8606  0
866.07  1.8652  0
866.04  1.8699  0
866.01  1.8746  0
865.98  1.8792  0
865.95  1.8839  0
865.92  1.8885  0
865.89  1.8932  0
865.86  1.8979  0
865.83  1.9025  0
865.8   1.9072  0
865.77  1.9119  0
865.74  1.9165  0
865.71  1.9212  0
865.68  1.9259  0
865.65  1.9305  0
865.62  1.9352  0
865.59  1.9399  0
865.56  1.9445  0
865.53  1.9492  0
865.5   1.9539  0
865.47  1.9585  0
865.44  1.9632  0
865.41  1.9679  0
865.38  1.9725  0
865.35  1.9772  0
865.32  1.9819  0
865.29  1.9865  0
865.26  1.9912  0
865.23  1.9959  0
865.2   2.0005  0
865.17  2.0052  0
865.14  2.0099  0
865.11  2.0145  0
865.08  2.0192  0
865.05  2.0239  0
865.02  2.0285  0
864.99  2.0332  0
864.96  2.0379  0
864.93  2.0425  0
864.9   2.0472  0
864.87  2.0519  0
864.84  2.0565  0
864.81  2.0612  0
864.78  2.0659  0
864.75  2.0705  0
864.72  2.0752  0
864.69  2.0799  0
864.66  2.0845  0
864.63  2.0892  0
864.6   2.0939  0
864.57  2.0985  0
864.54  2.1032  0
864.51  2.1079  0
864.48  2.1125  0
864.45  2.1172  0
864.42  2.1218  0
864.39  2.1265  0
864.36  2.1312  0
864.33  2.1358  0
864.3   2.1405  0
864.27  2.1452  0
864.24  2.1498  0
864.21  2.1545  0
864.18  2.1592  0
864.15  2.1638  0
864.12  2.1685  0
864.09  2.1732  0
864.06  2.1778  0
864.03  2.1825  0
864     2.1872  0
863.97  2.1918  0
863.94  2.1965  0
863.91  2.2012  0
863.88  2.2058  0
863.85  2.2105  0
863.82  2.2152  0
863.79  2.2198  0
863.76  2.2245  0
863.73  2.2292  0
863.7   2.2338  0
863.67  2.2385  0
863.64  2.2432  0
863.61  2.2478  0
863.58  2.2525  0
863.55  2.2572  0
863.52  2.2618  0
863.49  2.2665  0
863.46  2.2712  0
863.43  2.2758  0
863.4   2.2805  0
863.37  2.2852  0
863.34  2.2898  0
863.31  2.2945  0
863.28  2.2992  0
863.25  2.3038  0
863.22  2.3085  0
863.19  2.3132  0
863.16  2.3178  0
863.13  2.3225  0
863.1   2.3272  0
863.07  2.3318  0
863.04  2.3365  0
863.01  2.3412  0
862.98  2.3458  0
862.95  2.3505  0
862.92  2.3552  0
862.89  2.3598  0
862.86  2.3645  0
862.83  2.3691  0
862.8   2.3738  0
862.77  2.3785  0
862.74  2.3831  0
862.71  2.3878  0
862.68  2.3925  0
862.65  2.3971  0
862.62  2.4018  0
862.59  2.4065  0
862.56  2.4111  0
862.53  2.4158  0
862.5   2.4205  0
862.47  2.4251  0
862.44  2.4298  0
862.41  2.4345  0
862.38  2.4391  0
862.35  2.4438  0
862.32  2.4485  0
862.29  2.4531  0
862.26  2.4578  0
862.23  2.4625  0
862.2   2.4671  0
862.17  2.4718  0
862.14  2.4765  0
862.11  2.4811  0
862.08  2.4858  0
862.05  2.4905  0
862.02  2.4951  0
861.99  2.4998  0
861.96  2.5045  0
861.93  2.5091  0
861.9   2.5138  0
861.87  2.5185  0
861.84  2.5231  0
861.81  2.5278  0
861.78  2.5325  0
861.75  2.5371  0
861.72  2.5418  0
861.69  2.5465  0
861.66  2.5511  0
861.63  2.5558  0
861.6   2.5605  0
861.57  2.5651  0
861.54  2.5698  0
861.51  2.5745  0
861.48  2.5791  0
861.45  2.5838  0
861.42  2.5885  0
861.39  2.5931  0
861.36  2.5978  0
861.33  2.6024  0
861.3   2.6071  0
861.27  2.6118  0
861.24  2.6164  0
861.21  2.6211  0
861.18  2.6258  0
861.15  2.6304  0
861.12  2.6351  0
861.09  2.6398  0
861.06  2.6444  0
861.03  2.6491  0
861     2.6538  0
860.97  2.6584  0
860.94  2.6631  0
860.91  2.6678  0
860.88  2.6724  0
860.85  2.6771  0
860.82  2.6818  0
860.79  2.6864  0
860.76  2.6911  0
860.73  2.6958  0
860.7   2.7004  0
860.67  2.7051  0
860.64  2.7098  0
860.61  2.7144  0
860.58  2.7191  0
860.55  2.7238  0
860.52  2.7284  0
860.49  2.7331  0
860.46  2.7378  0
860.43  2.7424  0
860.4   2.7471  0
860.37  2.7518  0
860.34  2.7564  0
860.31  2.7611  0
860.28  2.7658  0
860.25  2.7704  0
860.22  2.7751  0
860.19  2.7798  0
860.16  2.7844  0
860.13  2.7891  0
860.1   2.7938  0
860.07  2.7984  0
860.04  2.8031  0
860.01  2.8078  0
859.98  2.8124  0
859.95  2.8171  0
859.92  2.8218  0
859.89  2.8264  0
859.86  2.8311  0
859.83  2.8358  0
859.8   2.8404  0
859.77  2.8451  0
859.74  2.8497  0
859.71  2.8544  0
859.68  2.8591  0
859.65  2.8637  0
859.62  2.8684  0
859.59  2.8731  0
859.56  2.8777  0
859.53  2.8824  0
859.5   2.8871  0
859.47  2.8917  0
859.44  2.8964  0
859.41  2.9011  0
859.38  2.9057  0
859.35  2.9104  0
859.32  2.9151  0
859.29  2.9197  0
859.26  2.9244  0
859.23  2.9291  0
859.2   2.9337  0
859.17  2.9384  0
859.14  2.9431  0
859.11  2.9477  0
859.08  2.9524  0
859.05  2.9571  0
859.02  2.9617  0
858.99  2.9664  0
858.96  2.9711  0
858.93  2.9757  0
858.9   2.9804  0
858.87  2.9851  0
858.84  2.9897  0
858.81  2.9944  0
858.78  2.9991  0
858.75  3.0037  0
858.72  3.0084  0
858.69  3.0131  0
858.66  3.0177  0
858.63  3.0224  0
858.6   3.0271  0
858.57  3.0317  0
858.54  3.0364  0
858.51  3.0411  0
858.48  3.0457  0
858.45  3.0504  0
858.42  3.0551  0
858.39  3.0597  0
858.36  3.0644  0
858.33  3.0691  0
858.3   3.0737  0
858.27  3.0784  0
858.24  3.083   0
858.21  3.0877  0
858.18  3.0924  0
858.15  3.097   0
858.12  3.1017  0
858.09  3.1064  0
858.06  3.111   0
858.03  3.1157  0
858     3.1204  0
857.97  3.125   0
857.94  3.1297  0
857.91  3.1344  0
857.88  3.139   0
857.85  3.1437  0
857.82  3.1484  0
857.79  3.153   0
857.76  3.1577  0
857.73  3.1624  0
857.7   3.167   0
857.67  3.1717  0
857.64  3.1764  0
857.61  3.181   0
857.58  3.1857  0
857.55  3.1904  0
857.52  3.195   0
857.49  3.1997  0
857.46  3.2044  0
857.43  3.209   0
857.4   3.2137  0
857.37  3.2184  0
857.34  3.223   0
857.31  3.2277  0
857.28  3.2324  0
857.25  3.237   0
857.22  3.2417  0
857.19  3.2464  0
857.16  3.251   0
857.13  3.2557  0
857.1   3.2604  0
857.07  3.265   0
857.04  3.2697  0
857.01  3.2744  0
856.98  3.279   0
856.95  3.2837  0
856.92  3.2884  0
856.89  3.293   0
856.86  3.2977  0
856.83  3.3024  0
856.8   3.307   0
856.77  3.3117  0
856.74  3.3164  0
856.71  3.321   0
856.68  3.3257  0
856.65  3.3303  0
856.62  3.335   0
856.59  3.3397  0
856.56  3.3443  0
856.53  3.349   0
856.5   3.3537  0
856.47  3.3583  0
856.44  3.363   0
856.41  3.3677  0
856.38  3.3723  0
856.35  3.377   0
856.32  3.3817  0
856.29  3.3863  0
856.26  3.391   0
856.23  3.3957  0
856.2   3.4003  0
856.17  3.405   0
856.14  3.4097  0
856.11  3.4143  0
856.08  3.419   0
856.05  3.4237  0
856.02  3.4283  0
855.99  3.433   0
855.96  3.4377  0
855.93  3.4423  0
855.9   3.447   0
855.87  3.4517  0
855.84  3.4563  0
855.81  3.461   0
855.78  3.4657  0
855.75  3.4703  0
855.72  3.475   0
855.69  3.4797  0
855.66  3.4843  0
855.63  3.489   0
855.6   3.4937  0
855.57  3.4983  0
855.54  3.503   0
855.51  3.5077  0
855.48  3.5123  0
855.45  3.517   0
855.42  3.5217  0
855.39  3.5263  0
855.36  3.531   0
855.33  3.5357  0
855.3   3.5403  0
855.27  3.545   0
855.24  3.5497  0
855.21  3.5543  0
855.18  3.559   0
855.15  3.5636  0
855.12  3.5683  0
855.09  3.573   0
855.06  3.5776  0
855.03  3.5823  0
855     3.587   0
854.97  3.5916  0
854.94  3.5963  0
854.91  3.601   0
854.88  3.6056  0
854.85  3.6103  0
854.82  3.615   0
854.79  3.6196  0
854.76  3.6243  0
854.73  3.629   0
854.7   3.6336  0
854.67  3.6383  0
854.64  3.643   0
854.61  3.6476  0
854.58  3.6523  0
854.55  3.657   0
854.52  3.6616  0
854.49  3.6663  0
854.46  3.671   0
854.43  3.6756  0
854.4   3.6803  0
854.37  3.685   0
854.34  3.6896  0
854.31  3.6943  0
854.28  3.699   0
854.25  3.7036  0
854.22  3.7083  0
854.19  3.713   0
854.16  3.7176  0
854.13  3.7223  0
854.1   3.727   0
854.07  3.7316  0
854.04  3.7363  0
854.01  3.741   0
853.98  3.7456  0
853.95  3.7503  0
853.92  3.755   0
853.89  3.7596  0
853.86  3.7643  0
853.83  3.769   0
853.8   3.7736  0
853.77  3.7783  0
853.74  3.783   0
853.71  3.7876  0
853.68  3.7923  0
853.65  3.797   0
853.62  3.8016  0
853.59  3.8063  0
853.56  3.8109  0
853.53  3.8156  0
853.5   3.8203  0
853.47  3.8249  0
853.44  3.8296  0
853.41  3.8343  0
853.38  3.8389  0
853.35  3.8436  0
853.32  3.8483  0
853.29  3.8529  0
853.26  3.8576  0
853.23  3.8623  0
853.2   3.8669  0
853.17  3.8716  0
853.14  3.8763  0
853.11  3.8809  0
853.08  3.8856  0
853.05  3.8903  0
853.02  3.8949  0
852.99  3.8996  0
852.96  3.9043  0
852.93  3.9089  0
852.9   3.9136  0
852.87  3.9183  0
852.84  3.9229  0
852.81  3.9276  0
852.78  3.9323  0
852.75  3.9369  0
852.72  3.9416  0
852.69  3.9463  0
852.66  3.9509  0
852.63  3.9556  0
852.6   3.9603  0
852.57  3.9649  0
852.54  3.9696  0
852.51  3.9743  0
852.48  3.9789  0
852.45  3.9836  0
852.42  3.9883  0
852.39  3.9929  0
852.36  3.9976  0
852.33  4.0023  0
852.3   4.0069  0
852.27  4.0116  0
852.24  4.0163  0
852.21  4.0209  0
852.18  4.0256  0
852.15  4.0303  0
852.12  4.0349  0
852.09  4.0396  0
852.06  4.0442  0
852.03  4.0489  0
852     4.0536  0
851.97  4.0582  0
851.94  4.0629  0
851.91  4.0676  0
851.88  4.0722  0
851.85  4.0769  0
851.82  4.0816  0
851.79  4.0862  0
851.76  4.0909  0
851.73  4.0956  0
851.7   4.1002  0
851.67  4.1049  0
851.64  4.1096  0
851.61  4.1142  0
851.58  4.1189  0
851.55  4.1236  0
851.52  4.1282  0
851.49  4.1329  0
851.46  4.1376  0
851.43  4.1422  0
851.4   4.1469  0
851.37  4.1516  0
851.34  4.1562  0
851.31  4.1609  0
851.28  4.1656  0
851.25  4.1702  0
851.22  4.1749  0
851.19  4.1796  0
851.16  4.1842  0
851.13  4.1889  0
851.1   4.1936  0
851.07  4.1982  0
851.04  4.2029  0
851.01  4.2076  0
850.98  4.2122  0
850.95  4.2169  0
850.92  4.2216  0
850.89  4.2262  0
850.86  4.2309  0
850.83  4.2356  0
850.8   4.2402  0
850.77  4.2449  0
850.74  4.2496  0
850.71  4.2542  0
850.68  4.2589  0
850.65  4.2636  0
850.62  4.2682  0
850.59  4.2729  0
850.56  4.2776  0
850.53  4.2822  0
850.5   4.2869  0
850.47  4.2915  0
850.44  4.2962  0
850.41  4.3009  0
850.38  4.3055  0
850.35  4.3102  0
850.32  4.3149  0
850.29  4.3195  0
850.26  4.3242  0
850.23  4.3289  0
850.2   4.3335  0
850.17  4.3382  0
850.14  4.3429  0
850.11  4.3475  0
850.08  4.3522  0
850.05  4.3569  0
850.02  4.3615  0
849.99  4.3662  0
849.96  4.3709  0
849.93  4.3755  0
849.9   4.3802  0
849.87  4.3849  0
849.84  4.3895  0
849.81  4.3942  0
849.78  4.3989  0
849.75  4.4035  0
849.72  4.4082  0
849.69  4.4129  0
849.66  4.4175  0
849.63  4.4222  0
849.6   4.4269  0
849.57  4.4315  0
849.54  4.4362  0
849.51  4.4409  0
849.48  4.4455  0
849.45  4.4502  0
849.42  4.4549  0
849.39  4.4595  0
849.36  4.4642  0
849.33  4.4689  0
849.3   4.4735  0
849.27  4.4782  0
849.24  4.4829  0
849.21  4.4875  0
849.18  4.4922  0
849.15  4.4969  0
849.12  4.5015  0
849.09  4.5062  0
849.06  4.5109  0
849.03  4.5155  0
849     4.5202  0
848.97  4.5248  0
848.94  4.5295  0
848.91  4.5342  0
848.88  4.5388  0
848.85  4.5435  0
848.82  4.5482  0
848.79  4.5528  0
848.76  4.5575  0
848.73  4.5622  0
848.7   4.5668  0
848.67  4.5715  0
848.64  4.5762  0
848.61  4.5808  0
848.58  4.5855  0
848.55  4.5902  0
848.52  4.5948  0
848.49  4.5995  0
848.46  4.6042  0
848.43  4.6088  0
848.4   4.6135  0
848.37  4.6182  0
848.34  4.6228  0
848.31  4.6275  0
848.28  4.6322  0
848.25  4.6368  0
848.22  4.6415  0
848.19  4.6462  0
848.16  4.6508  0
848.13  4.6555  0
848.1   4.6602  0
848.07  4.6648  0
848.04  4.6695  0
848.01  4.6742  0
847.98  4.6788  0
847.95  4.6835  0
847.92  4.6882  0
847.89  4.6928  0
847.86  4.6975  0
847.83  4.7022  0
847.8   4.7068  0
847.77  4.7115  0
847.74  4.7162  0
847.71  4.7208  0
847.68  4.7255  0
847.65  4.7302  0
847.62  4.7348  0
847.59  4.7395  0
847.56  4.7442  0
847.53  4.7488  0
847.5   4.7535  0
847.47  4.7582  0
847.44  4.7628  0
847.41  4.7675  0
847.38  4.7721  0
847.35  4.7768  0
847.32  4.7815  0
847.29  4.7861  0
847.26  4.7908  0
847.23  4.7955  0
847.2   4.8001  0
847.17  4.8048  0
847.14  4.8095  0
847.11  4.8141  0
847.08  4.8188  0
847.05  4.8235  0
847.02  4.8281  0
846.99  4.8328  0
846.96  4.8375  0
846.93  4.8421  0
846.9   4.8468  0
846.87  4.8515  0
846.84  4.8561  0
846.81  4.8608  0
846.78  4.8655  0
846.75  4.8701  0
846.72  4.8748  0
846.69  4.8795  0
846.66  4.8841  0
846.63  4.8888  0
846.6   4.8935  0
846.57  4.8981  0
846.54  4.9028  0
846.51  4.9075  0
846.48  4.9121  0
846.45  4.9168  0
846.42  4.9215  0
846.39  4.9261  0
846.36  4.9308  0
846.33  4.9355  0
846.3   4.9401  0
846.27  4.9448  0
846.24  4.9495  0
846.21  4.9541  0
846.18  4.9588  0
846.15  4.9635  0
846.12  4.9681  0
846.09  4.9728  0
846.06  4.9775  0
846.03  4.9821  0
846     4.9868  0
845.97  4.9915  0
845.94  4.9961  0
845.91  5.0008  0
845.88  5.0055  0
845.85  5.0101  0
845.82  5.0148  0
845.79  5.0194  0
845.76  5.0241  0
845.73  5.0288  0
845.7   5.0334  0
845.67  5.0381  0
845.64  5.0428  0
845.61  5.0474  0
845.58  5.0521  0
845.55  5.0568  0
845.52  5.0614  0
845.49  5.0661  0
845.46  5.0708  0
845.43  5.0754  0
845.4   5.0801  0
845.37  5.0848  0
845.34  5.0894  0
845.31  5.0941  0
845.28  5.0988  0
845.25  5.1034  0
845.22  5.1081  0
845.19  5.1128  0
845.16  5.1174  0
845.13  5.1221  0
845.1   5.1268  0
845.07  5.1314  0
845.04  5.1361  0
845.01  5.1408  0
825     8.253   0
789.36  7.339   0
775     8.748   0
770.41  8.64    0
765.15  10.755  0
725     11.372  0
703.36  10.731  0
675     9.9     0
629.73  8.464   0
625     8.445   0
609.76  7.811   0
584.33  7.021   0
575     6.864   0
554.37  6.168   0
525     5.356   0
475     4.502   0
465.22  3.87    0
425     3.025   0
375     1.901   0
368.07  1.942   0
325     1.417   0
303.78  1.022   0
303.31  1.018   0
284.15  0.8388  0
275     0.7296  0
256.3   0.6037  0
225     0.4333  0
175     0.2085  0
125     0.0798  0
75      0.0108  0
41      0       0
27.5    0       0
19.5    0       0
