#Wavelength cs_H Dcs_H (angstrom cm2 cm2)
2275    0       0
2225    0       0
2175    0       0
2125    0       0
2075    0       0
2025    0       0
1975    0       0
1925    0       0
1875    0       0
1825    0       0
1775    0       0
1725    0       0
1675    0       0
1625    0       0
1575    0       0
1525    0       0
1475    0       0
1425    0       0
1375    0       0
1325    0       0
1275    0       0
1225    0       0
1215.7  0       0
1175    0       0
1125    0       0
1075    0       0
1031.9  0       0
1025.7  0       0
1025    0       0
999.99  0       0
999.96  0       0
999.93  0       0
999.9   0       0
999.87  0       0
999.84  0       0
999.81  0       0
999.78  0       0
999.75  0       0
999.72  0       0
999.69  0       0
999.66  0       0
999.63  0       0
999.6   0       0
999.57  0       0
999.54  0       0
999.51  0       0
999.48  0       0
999.45  0       0
999.42  0       0
999.39  0       0
999.36  0       0
999.33  0       0
999.3   0       0
999.27  0       0
999.24  0       0
999.21  0       0
999.18  0       0
999.15  0       0
999.12  0       0
999.09  0       0
999.06  0       0
999.03  0       0
999     0       0
998.97  0       0
998.94  0       0
998.91  0       0
998.88  0       0
998.85  0       0
998.82  0       0
998.79  0       0
998.76  0       0
998.73  0       0
998.7   0       0
998.67  0       0
998.64  0       0
998.61  0       0
998.58  0       0
998.55  0       0
998.52  0       0
998.49  0       0
998.46  0       0
998.43  0       0
998.4   0       0
998.37  0       0
998.34  0       0
998.31  0       0
998.28  0       0
998.25  0       0
998.22  0       0
998.19  0       0
998.16  0       0
998.13  0       0
998.1   0       0
998.07  0       0
998.04  0       0
998.01  0       0
997.98  0       0
997.95  0       0
997.92  0       0
997.89  0       0
997.86  0       0
997.83  0       0
997.8   0       0
997.77  0       0
997.74  0       0
997.71  0       0
997.68  0       0
997.65  0       0
997.62  0       0
997.59  0       0
997.56  0       0
997.53  0       0
997.5   0       0
997.47  0       0
997.44  0       0
997.41  0       0
997.38  0       0
997.35  0       0
997.32  0       0
997.29  0       0
997.26  0       0
997.23  0       0
997.2   0       0
997.17  0       0
997.14  0       0
997.11  0       0
997.08  0       0
997.05  0       0
997.02  0       0
996.99  0       0
996.96  0       0
996.93  0       0
996.9   0       0
996.87  0       0
996.84  0       0
996.81  0       0
996.78  0       0
996.75  0       0
996.72  0       0
996.69  0       0
996.66  0       0
996.63  0       0
996.6   0       0
996.57  0       0
996.54  0       0
996.51  0       0
996.48  0       0
996.45  0       0
996.42  0       0
996.39  0       0
996.36  0       0
996.33  0       0
996.3   0       0
996.27  0       0
996.24  0       0
996.21  0       0
996.18  0       0
996.15  0       0
996.12  0       0
996.09  0       0
996.06  0       0
996.03  0       0
996     0       0
995.97  0       0
995.94  0       0
995.91  0       0
995.88  0       0
995.85  0       0
995.82  0       0
995.79  0       0
995.76  0       0
995.73  0       0
995.7   0       0
995.67  0       0
995.64  0       0
995.61  0       0
995.58  0       0
995.55  0       0
995.52  0       0
995.49  0       0
995.46  0       0
995.43  0       0
995.4   0       0
995.37  0       0
995.34  0       0
995.31  0       0
995.28  0       0
995.25  0       0
995.22  0       0
995.19  0       0
995.16  0       0
995.13  0       0
995.1   0       0
995.07  0       0
995.04  0       0
995.01  0       0
994.98  0       0
994.95  0       0
994.92  0       0
994.89  0       0
994.86  0       0
994.83  0       0
994.8   0       0
994.77  0       0
994.74  0       0
994.71  0       0
994.68  0       0
994.65  0       0
994.62  0       0
994.59  0       0
994.56  0       0
994.53  0       0
994.5   0       0
994.47  0       0
994.44  0       0
994.41  0       0
994.38  0       0
994.35  0       0
994.32  0       0
994.29  0       0
994.26  0       0
994.23  0       0
994.2   0       0
994.17  0       0
994.14  0       0
994.11  0       0
994.08  0       0
994.05  0       0
994.02  0       0
993.99  0       0
993.96  0       0
993.93  0       0
993.9   0       0
993.87  0       0
993.84  0       0
993.81  0       0
993.78  0       0
993.75  0       0
993.72  0       0
993.69  0       0
993.66  0       0
993.63  0       0
993.6   0       0
993.57  0       0
993.54  0       0
993.51  0       0
993.48  0       0
993.45  0       0
993.42  0       0
993.39  0       0
993.36  0       0
993.33  0       0
993.3   0       0
993.27  0       0
993.24  0       0
993.21  0       0
993.18  0       0
993.15  0       0
993.12  0       0
993.09  0       0
993.06  0       0
993.03  0       0
993     0       0
992.97  0       0
992.94  0       0
992.91  0       0
992.88  0       0
992.85  0       0
992.82  0       0
992.79  0       0
992.76  0       0
992.73  0       0
992.7   0       0
992.67  0       0
992.64  0       0
992.61  0       0
992.58  0       0
992.55  0       0
992.52  0       0
992.49  0       0
992.46  0       0
992.43  0       0
992.4   0       0
992.37  0       0
992.34  0       0
992.31  0       0
992.28  0       0
992.25  0       0
992.22  0       0
992.19  0       0
992.16  0       0
992.13  0       0
992.1   0       0
992.07  0       0
992.04  0       0
992.01  0       0
991.98  0       0
991.95  0       0
991.92  0       0
991.89  0       0
991.86  0       0
991.83  0       0
991.8   0       0
991.77  0       0
991.74  0       0
991.71  0       0
991.68  0       0
991.65  0       0
991.62  0       0
991.59  0       0
991.56  0       0
991.53  0       0
991.5   0       0
991.47  0       0
991.44  0       0
991.41  0       0
991.38  0       0
991.35  0       0
991.32  0       0
991.29  0       0
991.26  0       0
991.23  0       0
991.2   0       0
991.17  0       0
991.14  0       0
991.11  0       0
991.08  0       0
991.05  0       0
991.02  0       0
990.99  0       0
990.96  0       0
990.93  0       0
990.9   0       0
990.87  0       0
990.84  0       0
990.81  0       0
990.78  0       0
990.75  0       0
990.72  0       0
990.69  0       0
990.66  0       0
990.63  0       0
990.6   0       0
990.57  0       0
990.54  0       0
990.51  0       0
990.48  0       0
990.45  0       0
990.42  0       0
990.39  0       0
990.36  0       0
990.33  0       0
990.3   0       0
990.27  0       0
990.24  0       0
990.21  0       0
990.18  0       0
990.15  0       0
990.12  0       0
990.09  0       0
990.06  0       0
990.03  0       0
990     0       0
989.97  0       0
989.94  0       0
989.91  0       0
989.88  0       0
989.85  0       0
989.82  0       0
989.79  0       0
989.76  0       0
989.73  0       0
989.7   0       0
989.67  0       0
989.64  0       0
989.61  0       0
989.58  0       0
989.55  0       0
989.52  0       0
989.49  0       0
989.46  0       0
989.43  0       0
989.4   0       0
989.37  0       0
989.34  0       0
989.31  0       0
989.28  0       0
989.25  0       0
989.22  0       0
989.19  0       0
989.16  0       0
989.13  0       0
989.1   0       0
989.07  0       0
989.04  0       0
989.01  0       0
988.98  0       0
988.95  0       0
988.92  0       0
988.89  0       0
988.86  0       0
988.83  0       0
988.8   0       0
988.77  0       0
988.74  0       0
988.71  0       0
988.68  0       0
988.65  0       0
988.62  0       0
988.59  0       0
988.56  0       0
988.53  0       0
988.5   0       0
988.47  0       0
988.44  0       0
988.41  0       0
988.38  0       0
988.35  0       0
988.32  0       0
988.29  0       0
988.26  0       0
988.23  0       0
988.2   0       0
988.17  0       0
988.14  0       0
988.11  0       0
988.08  0       0
988.05  0       0
988.02  0       0
987.99  0       0
987.96  0       0
987.93  0       0
987.9   0       0
987.87  0       0
987.84  0       0
987.81  0       0
987.78  0       0
987.75  0       0
987.72  0       0
987.69  0       0
987.66  0       0
987.63  0       0
987.6   0       0
987.57  0       0
987.54  0       0
987.51  0       0
987.48  0       0
987.45  0       0
987.42  0       0
987.39  0       0
987.36  0       0
987.33  0       0
987.3   0       0
987.27  0       0
987.24  0       0
987.21  0       0
987.18  0       0
987.15  0       0
987.12  0       0
987.09  0       0
987.06  0       0
987.03  0       0
987     0       0
986.97  0       0
986.94  0       0
986.91  0       0
986.88  0       0
986.85  0       0
986.82  0       0
986.79  0       0
986.76  0       0
986.73  0       0
986.7   0       0
986.67  0       0
986.64  0       0
986.61  0       0
986.58  0       0
986.55  0       0
986.52  0       0
986.49  0       0
986.46  0       0
986.43  0       0
986.4   0       0
986.37  0       0
986.34  0       0
986.31  0       0
986.28  0       0
986.25  0       0
986.22  0       0
986.19  0       0
986.16  0       0
986.13  0       0
986.1   0       0
986.07  0       0
986.04  0       0
986.01  0       0
985.98  0       0
985.95  0       0
985.92  0       0
985.89  0       0
985.86  0       0
985.83  0       0
985.8   0       0
985.77  0       0
985.74  0       0
985.71  0       0
985.68  0       0
985.65  0       0
985.62  0       0
985.59  0       0
985.56  0       0
985.53  0       0
985.5   0       0
985.47  0       0
985.44  0       0
985.41  0       0
985.38  0       0
985.35  0       0
985.32  0       0
985.29  0       0
985.26  0       0
985.23  0       0
985.2   0       0
985.17  0       0
985.14  0       0
985.11  0       0
985.08  0       0
985.05  0       0
985.02  0       0
984.99  0       0
984.96  0       0
984.93  0       0
984.9   0       0
984.87  0       0
984.84  0       0
984.81  0       0
984.78  0       0
984.75  0       0
984.72  0       0
984.69  0       0
984.66  0       0
984.63  0       0
984.6   0       0
984.57  0       0
984.54  0       0
984.51  0       0
984.48  0       0
984.45  0       0
984.42  0       0
984.39  0       0
984.36  0       0
984.33  0       0
984.3   0       0
984.27  0       0
984.24  0       0
984.21  0       0
984.18  0       0
984.15  0       0
984.12  0       0
984.09  0       0
984.06  0       0
984.03  0       0
984     0       0
983.97  0       0
983.94  0       0
983.91  0       0
983.88  0       0
983.85  0       0
983.82  0       0
983.79  0       0
983.76  0       0
983.73  0       0
983.7   0       0
983.67  0       0
983.64  0       0
983.61  0       0
983.58  0       0
983.55  0       0
983.52  0       0
983.49  0       0
983.46  0       0
983.43  0       0
983.4   0       0
983.37  0       0
983.34  0       0
983.31  0       0
983.28  0       0
983.25  0       0
983.22  0       0
983.19  0       0
983.16  0       0
983.13  0       0
983.1   0       0
983.07  0       0
983.04  0       0
983.01  0       0
982.98  0       0
982.95  0       0
982.92  0       0
982.89  0       0
982.86  0       0
982.83  0       0
982.8   0       0
982.77  0       0
982.74  0       0
982.71  0       0
982.68  0       0
982.65  0       0
982.62  0       0
982.59  0       0
982.56  0       0
982.53  0       0
982.5   0       0
982.47  0       0
982.44  0       0
982.41  0       0
982.38  0       0
982.35  0       0
982.32  0       0
982.29  0       0
982.26  0       0
982.23  0       0
982.2   0       0
982.17  0       0
982.14  0       0
982.11  0       0
982.08  0       0
982.05  0       0
982.02  0       0
981.99  0       0
981.96  0       0
981.93  0       0
981.9   0       0
981.87  0       0
981.84  0       0
981.81  0       0
981.78  0       0
981.75  0       0
981.72  0       0
981.69  0       0
981.66  0       0
981.63  0       0
981.6   0       0
981.57  0       0
981.54  0       0
981.51  0       0
981.48  0       0
981.45  0       0
981.42  0       0
981.39  0       0
981.36  0       0
981.33  0       0
981.3   0       0
981.27  0       0
981.24  0       0
981.21  0       0
981.18  0       0
981.15  0       0
981.12  0       0
981.09  0       0
981.06  0       0
981.03  0       0
981     0       0
980.97  0       0
980.94  0       0
980.91  0       0
980.88  0       0
980.85  0       0
980.82  0       0
980.79  0       0
980.76  0       0
980.73  0       0
980.7   0       0
980.67  0       0
980.64  0       0
980.61  0       0
980.58  0       0
980.55  0       0
980.52  0       0
980.49  0       0
980.46  0       0
980.43  0       0
980.4   0       0
980.37  0       0
980.34  0       0
980.31  0       0
980.28  0       0
980.25  0       0
980.22  0       0
980.19  0       0
980.16  0       0
980.13  0       0
980.1   0       0
980.07  0       0
980.04  0       0
980.01  0       0
979.98  0       0
979.95  0       0
979.92  0       0
979.89  0       0
979.86  0       0
979.83  0       0
979.8   0       0
979.77  0       0
979.74  0       0
979.71  0       0
979.68  0       0
979.65  0       0
979.62  0       0
979.59  0       0
979.56  0       0
979.53  0       0
979.5   0       0
979.47  0       0
979.44  0       0
979.41  0       0
979.38  0       0
979.35  0       0
979.32  0       0
979.29  0       0
979.26  0       0
979.23  0       0
979.2   0       0
979.17  0       0
979.14  0       0
979.11  0       0
979.08  0       0
979.05  0       0
979.02  0       0
978.99  0       0
978.96  0       0
978.93  0       0
978.9   0       0
978.87  0       0
978.84  0       0
978.81  0       0
978.78  0       0
978.75  0       0
978.72  0       0
978.69  0       0
978.66  0       0
978.63  0       0
978.6   0       0
978.57  0       0
978.54  0       0
978.51  0       0
978.48  0       0
978.45  0       0
978.42  0       0
978.39  0       0
978.36  0       0
978.33  0       0
978.3   0       0
978.27  0       0
978.24  0       0
978.21  0       0
978.18  0       0
978.15  0       0
978.12  0       0
978.09  0       0
978.06  0       0
978.03  0       0
978     0       0
977.97  0       0
977.94  0       0
977.91  0       0
977.88  0       0
977.85  0       0
977.82  0       0
977.79  0       0
977.76  0       0
977.73  0       0
977.7   0       0
977.67  0       0
977.64  0       0
977.61  0       0
977.58  0       0
977.55  0       0
977.52  0       0
977.49  0       0
977.46  0       0
977.43  0       0
977.4   0       0
977.37  0       0
977.34  0       0
977.31  0       0
977.28  0       0
977.25  0       0
977.22  0       0
977.19  0       0
977.16  0       0
977.13  0       0
977.1   0       0
977.07  0       0
977.04  0       0
977.01  0       0
976.98  0       0
976.95  0       0
976.92  0       0
976.89  0       0
976.86  0       0
976.83  0       0
976.8   0       0
976.77  0       0
976.74  0       0
976.71  0       0
976.68  0       0
976.65  0       0
976.62  0       0
976.59  0       0
976.56  0       0
976.53  0       0
976.5   0       0
976.47  0       0
976.44  0       0
976.41  0       0
976.38  0       0
976.35  0       0
976.32  0       0
976.29  0       0
976.26  0       0
976.23  0       0
976.2   0       0
976.17  0       0
976.14  0       0
976.11  0       0
976.08  0       0
976.05  0       0
976.02  0       0
975.99  0       0
975.96  0       0
975.93  0       0
975.9   0       0
975.87  0       0
975.84  0       0
975.81  0       0
975.78  0       0
975.75  0       0
975.72  0       0
975.69  0       0
975.66  0       0
975.63  0       0
975.6   0       0
975.57  0       0
975.54  0       0
975.51  0       0
975.48  0       0
975.45  0       0
975.42  0       0
975.39  0       0
975.36  0       0
975.33  0       0
975.3   0       0
975.27  0       0
975.24  0       0
975.21  0       0
975.18  0       0
975.15  0       0
975.12  0       0
975.09  0       0
975.06  0       0
975.03  0       0
975     0       0
974.97  0.0020810
974.94  0.0041620
974.91  0.0062440
974.88  0.0083250
974.85  0.0104070
974.82  0.0124880
974.79  0.01457 0
974.76  0.0166510
974.73  0.0187330
974.7   0.0208140
974.67  0.0228950
974.64  0.0249770
974.61  0.0270580
974.58  0.02914 0
974.55  0.0312210
974.52  0.0333020
974.49  0.0353840
974.46  0.0374650
974.43  0.0395470
974.4   0.0416280
974.37  0.0437090
974.34  0.0457910
974.31  0.0478720
974.28  0.0499540
974.25  0.0520350
974.22  0.0541160
974.19  0.0561980
974.16  0.0582790
974.13  0.0603610
974.1   0.0624420
974.07  0.0645230
974.04  0.0666050
974.01  0.0686860
973.98  0.0707680
973.95  0.0728490
973.92  0.07493 0
973.89  0.0770120
973.86  0.0790930
973.83  0.0811750
973.8   0.0832560
973.77  0.0853370
973.74  0.0874190
973.71  0.0895  0
973.68  0.0915820
973.65  0.0936630
973.62  0.0957440
973.59  0.0978260
973.56  0.0999070
973.53  0.10199 0
973.5   0.10407 0
973.47  0.10615 0
973.44  0.10823 0
973.41  0.11031 0
973.38  0.1124  0
973.35  0.11448 0
973.32  0.11656 0
973.29  0.11864 0
973.26  0.12072 0
973.23  0.1228  0
973.2   0.12488 0
973.17  0.12697 0
973.14  0.12905 0
973.11  0.13113 0
973.08  0.13321 0
973.05  0.13529 0
973.02  0.13737 0
972.99  0.13945 0
972.96  0.14154 0
972.93  0.14362 0
972.9   0.1457  0
972.87  0.14778 0
972.84  0.14986 0
972.81  0.15194 0
972.78  0.15402 0
972.75  0.1561  0
972.72  0.15819 0
972.69  0.16027 0
972.66  0.16235 0
972.63  0.16443 0
972.6   0.16651 0
972.57  0.16859 0
972.54  0.17067 0
972.51  0.17276 0
972.48  0.17484 0
972.45  0.17692 0
972.42  0.179   0
972.39  0.18108 0
972.36  0.18316 0
972.33  0.18524 0
972.3   0.18733 0
972.27  0.18941 0
972.24  0.19149 0
972.21  0.19357 0
972.18  0.19565 0
972.15  0.19773 0
972.12  0.19981 0
972.09  0.2019  0
972.06  0.20398 0
972.03  0.20606 0
972     0.20814 0
971.97  0.21022 0
971.94  0.2123  0
971.91  0.21438 0
971.88  0.21647 0
971.85  0.21855 0
971.82  0.22063 0
971.79  0.22271 0
971.76  0.22479 0
971.73  0.22687 0
971.7   0.22895 0
971.67  0.23104 0
971.64  0.23312 0
971.61  0.2352  0
971.58  0.23728 0
971.55  0.23936 0
971.52  0.24144 0
971.49  0.24352 0
971.46  0.24561 0
971.43  0.24769 0
971.4   0.24977 0
971.37  0.25185 0
971.34  0.25393 0
971.31  0.25601 0
971.28  0.25809 0
971.25  0.26017 0
971.22  0.26226 0
971.19  0.26434 0
971.16  0.26642 0
971.13  0.2685  0
971.1   0.27058 0
971.07  0.27266 0
971.04  0.27474 0
971.01  0.27683 0
970.98  0.27891 0
970.95  0.28099 0
970.92  0.28307 0
970.89  0.28515 0
970.86  0.28723 0
970.83  0.28931 0
970.8   0.2914  0
970.77  0.29348 0
970.74  0.29556 0
970.71  0.29764 0
970.68  0.29972 0
970.65  0.3018  0
970.62  0.30388 0
970.59  0.30597 0
970.56  0.30805 0
970.53  0.31013 0
970.5   0.31221 0
970.47  0.31429 0
970.44  0.31637 0
970.41  0.31845 0
970.38  0.32054 0
970.35  0.32262 0
970.32  0.3247  0
970.29  0.32678 0
970.26  0.32886 0
970.23  0.33094 0
970.2   0.33302 0
970.17  0.33511 0
970.14  0.33719 0
970.11  0.33927 0
970.08  0.34135 0
970.05  0.34343 0
970.02  0.34551 0
969.99  0.34759 0
969.96  0.34968 0
969.93  0.35176 0
969.9   0.35384 0
969.87  0.35592 0
969.84  0.358   0
969.81  0.36008 0
969.78  0.36216 0
969.75  0.36424 0
969.72  0.36633 0
969.69  0.36841 0
969.66  0.37049 0
969.63  0.37257 0
969.6   0.37465 0
969.57  0.37673 0
969.54  0.37881 0
969.51  0.3809  0
969.48  0.38298 0
969.45  0.38506 0
969.42  0.38714 0
969.39  0.38922 0
969.36  0.3913  0
969.33  0.39338 0
969.3   0.39547 0
969.27  0.39755 0
969.24  0.39963 0
969.21  0.40171 0
969.18  0.40379 0
969.15  0.40587 0
969.12  0.40795 0
969.09  0.41004 0
969.06  0.41212 0
969.03  0.4142  0
969     0.41628 0
968.97  0.41836 0
968.94  0.42044 0
968.91  0.42252 0
968.88  0.42461 0
968.85  0.42669 0
968.82  0.42877 0
968.79  0.43085 0
968.76  0.43293 0
968.73  0.43501 0
968.7   0.43709 0
968.67  0.43918 0
968.64  0.44126 0
968.61  0.44334 0
968.58  0.44542 0
968.55  0.4475  0
968.52  0.44958 0
968.49  0.45166 0
968.46  0.45375 0
968.43  0.45583 0
968.4   0.45791 0
968.37  0.45999 0
968.34  0.46207 0
968.31  0.46415 0
968.28  0.46623 0
968.25  0.46831 0
968.22  0.4704  0
968.19  0.47248 0
968.16  0.47456 0
968.13  0.47664 0
968.1   0.47872 0
968.07  0.4808  0
968.04  0.48288 0
968.01  0.48497 0
967.98  0.48705 0
967.95  0.48913 0
967.92  0.49121 0
967.89  0.49329 0
967.86  0.49537 0
967.83  0.49745 0
967.8   0.49954 0
967.77  0.50162 0
967.74  0.5037  0
967.71  0.50578 0
967.68  0.50786 0
967.65  0.50994 0
967.62  0.51202 0
967.59  0.51411 0
967.56  0.51619 0
967.53  0.51827 0
967.5   0.52035 0
967.47  0.52243 0
967.44  0.52451 0
967.41  0.52659 0
967.38  0.52868 0
967.35  0.53076 0
967.32  0.53284 0
967.29  0.53492 0
967.26  0.537   0
967.23  0.53908 0
967.2   0.54116 0
967.17  0.54325 0
967.14  0.54533 0
967.11  0.54741 0
967.08  0.54949 0
967.05  0.55157 0
967.02  0.55365 0
966.99  0.55573 0
966.96  0.55782 0
966.93  0.5599  0
966.9   0.56198 0
966.87  0.56406 0
966.84  0.56614 0
966.81  0.56822 0
966.78  0.5703  0
966.75  0.57239 0
966.72  0.57447 0
966.69  0.57655 0
966.66  0.57863 0
966.63  0.58071 0
966.6   0.58279 0
966.57  0.58487 0
966.54  0.58695 0
966.51  0.58904 0
966.48  0.59112 0
966.45  0.5932  0
966.42  0.59528 0
966.39  0.59736 0
966.36  0.59944 0
966.33  0.60152 0
966.3   0.60361 0
966.27  0.60569 0
966.24  0.60777 0
966.21  0.60985 0
966.18  0.61193 0
966.15  0.61401 0
966.12  0.61609 0
966.09  0.61818 0
966.06  0.62026 0
966.03  0.62234 0
966     0.62442 0
965.97  0.6265  0
965.94  0.62858 0
965.91  0.63066 0
965.88  0.63275 0
965.85  0.63483 0
965.82  0.63691 0
965.79  0.63899 0
965.76  0.64107 0
965.73  0.64315 0
965.7   0.64523 0
965.67  0.64732 0
965.64  0.6494  0
965.61  0.65148 0
965.58  0.65356 0
965.55  0.65564 0
965.52  0.65772 0
965.49  0.6598  0
965.46  0.66189 0
965.43  0.66397 0
965.4   0.66605 0
965.37  0.66813 0
965.34  0.67021 0
965.31  0.67229 0
965.28  0.67437 0
965.25  0.67646 0
965.22  0.67854 0
965.19  0.68062 0
965.16  0.6827  0
965.13  0.68478 0
965.1   0.68686 0
965.07  0.68894 0
965.04  0.69102 0
965.01  0.69311 0
964.98  0.69519 0
964.95  0.69727 0
964.92  0.69935 0
964.89  0.70143 0
964.86  0.70351 0
964.83  0.70559 0
964.8   0.70768 0
964.77  0.70976 0
964.74  0.71184 0
964.71  0.71392 0
964.68  0.716   0
964.65  0.71808 0
964.62  0.72016 0
964.59  0.72225 0
964.56  0.72433 0
964.53  0.72641 0
964.5   0.72849 0
964.47  0.73057 0
964.44  0.73265 0
964.41  0.73473 0
964.38  0.73682 0
964.35  0.7389  0
964.32  0.74098 0
964.29  0.74306 0
964.26  0.74514 0
964.23  0.74722 0
964.2   0.7493  0
964.17  0.75139 0
964.14  0.75347 0
964.11  0.75555 0
964.08  0.75763 0
964.05  0.75971 0
964.02  0.76179 0
963.99  0.76387 0
963.96  0.76596 0
963.93  0.76804 0
963.9   0.77012 0
963.87  0.7722  0
963.84  0.77428 0
963.81  0.77636 0
963.78  0.77844 0
963.75  0.78053 0
963.72  0.78261 0
963.69  0.78469 0
963.66  0.78677 0
963.63  0.78885 0
963.6   0.79093 0
963.57  0.79301 0
963.54  0.79509 0
963.51  0.79718 0
963.48  0.79926 0
963.45  0.80134 0
963.42  0.80342 0
963.39  0.8055  0
963.36  0.80758 0
963.33  0.80966 0
963.3   0.81175 0
963.27  0.81383 0
963.24  0.81591 0
963.21  0.81799 0
963.18  0.82007 0
963.15  0.82215 0
963.12  0.82423 0
963.09  0.82632 0
963.06  0.8284  0
963.03  0.83048 0
963     0.83256 0
962.97  0.83464 0
962.94  0.83672 0
962.91  0.8388  0
962.88  0.84089 0
962.85  0.84297 0
962.82  0.84505 0
962.79  0.84713 0
962.76  0.84921 0
962.73  0.85129 0
962.7   0.85337 0
962.67  0.85546 0
962.64  0.85754 0
962.61  0.85962 0
962.58  0.8617  0
962.55  0.86378 0
962.52  0.86586 0
962.49  0.86794 0
962.46  0.87003 0
962.43  0.87211 0
962.4   0.87419 0
962.37  0.87627 0
962.34  0.87835 0
962.31  0.88043 0
962.28  0.88251 0
962.25  0.8846  0
962.22  0.88668 0
962.19  0.88876 0
962.16  0.89084 0
962.13  0.89292 0
962.1   0.895   0
962.07  0.89708 0
962.04  0.89916 0
962.01  0.90125 0
961.98  0.90333 0
961.95  0.90541 0
961.92  0.90749 0
961.89  0.90957 0
961.86  0.91165 0
961.83  0.91373 0
961.8   0.91582 0
961.77  0.9179  0
961.74  0.91998 0
961.71  0.92206 0
961.68  0.92414 0
961.65  0.92622 0
961.62  0.9283  0
961.59  0.93039 0
961.56  0.93247 0
961.53  0.93455 0
961.5   0.93663 0
961.47  0.93871 0
961.44  0.94079 0
961.41  0.94287 0
961.38  0.94496 0
961.35  0.94704 0
961.32  0.94912 0
961.29  0.9512  0
961.26  0.95328 0
961.23  0.95536 0
961.2   0.95744 0
961.17  0.95953 0
961.14  0.96161 0
961.11  0.96369 0
961.08  0.96577 0
961.05  0.96785 0
961.02  0.96993 0
960.99  0.97201 0
960.96  0.9741  0
960.93  0.97618 0
960.9   0.97826 0
960.87  0.98034 0
960.84  0.98242 0
960.81  0.9845  0
960.78  0.98658 0
960.75  0.98867 0
960.72  0.99075 0
960.69  0.99283 0
960.66  0.99491 0
960.63  0.99699 0
960.6   0.99907 0
960.57  1.0012  0
960.54  1.0032  0
960.51  1.0053  0
960.48  1.0074  0
960.45  1.0095  0
960.42  1.0116  0
960.39  1.0136  0
960.36  1.0157  0
960.33  1.0178  0
960.3   1.0199  0
960.27  1.022   0
960.24  1.024   0
960.21  1.0261  0
960.18  1.0282  0
960.15  1.0303  0
960.12  1.0324  0
960.09  1.0345  0
960.06  1.0365  0
960.03  1.0386  0
960     1.0407  0
959.97  1.0428  0
959.94  1.0449  0
959.91  1.0469  0
959.88  1.049   0
959.85  1.0511  0
959.82  1.0532  0
959.79  1.0553  0
959.76  1.0574  0
959.73  1.0594  0
959.7   1.0615  0
959.67  1.0636  0
959.64  1.0657  0
959.61  1.0678  0
959.58  1.0698  0
959.55  1.0719  0
959.52  1.074   0
959.49  1.0761  0
959.46  1.0782  0
959.43  1.0802  0
959.4   1.0823  0
959.37  1.0844  0
959.34  1.0865  0
959.31  1.0886  0
959.28  1.0907  0
959.25  1.0927  0
959.22  1.0948  0
959.19  1.0969  0
959.16  1.099   0
959.13  1.1011  0
959.1   1.1031  0
959.07  1.1052  0
959.04  1.1073  0
959.01  1.1094  0
958.98  1.1115  0
958.95  1.1135  0
958.92  1.1156  0
958.89  1.1177  0
958.86  1.1198  0
958.83  1.1219  0
958.8   1.124   0
958.77  1.126   0
958.74  1.1281  0
958.71  1.1302  0
958.68  1.1323  0
958.65  1.1344  0
958.62  1.1364  0
958.59  1.1385  0
958.56  1.1406  0
958.53  1.1427  0
958.5   1.1448  0
958.47  1.1469  0
958.44  1.1489  0
958.41  1.151   0
958.38  1.1531  0
958.35  1.1552  0
958.32  1.1573  0
958.29  1.1593  0
958.26  1.1614  0
958.23  1.1635  0
958.2   1.1656  0
958.17  1.1677  0
958.14  1.1697  0
958.11  1.1718  0
958.08  1.1739  0
958.05  1.176   0
958.02  1.1781  0
957.99  1.1802  0
957.96  1.1822  0
957.93  1.1843  0
957.9   1.1864  0
957.87  1.1885  0
957.84  1.1906  0
957.81  1.1926  0
957.78  1.1947  0
957.75  1.1968  0
957.72  1.1989  0
957.69  1.201   0
957.66  1.203   0
957.63  1.2051  0
957.6   1.2072  0
957.57  1.2093  0
957.54  1.2114  0
957.51  1.2135  0
957.48  1.2155  0
957.45  1.2176  0
957.42  1.2197  0
957.39  1.2218  0
957.36  1.2239  0
957.33  1.2259  0
957.3   1.228   0
957.27  1.2301  0
957.24  1.2322  0
957.21  1.2343  0
957.18  1.2364  0
957.15  1.2384  0
957.12  1.2405  0
957.09  1.2426  0
957.06  1.2447  0
957.03  1.2468  0
957     1.2488  0
956.97  1.2509  0
956.94  1.253   0
956.91  1.2551  0
956.88  1.2572  0
956.85  1.2592  0
956.82  1.2613  0
956.79  1.2634  0
956.76  1.2655  0
956.73  1.2676  0
956.7   1.2697  0
956.67  1.2717  0
956.64  1.2738  0
956.61  1.2759  0
956.58  1.278   0
956.55  1.2801  0
956.52  1.2821  0
956.49  1.2842  0
956.46  1.2863  0
956.43  1.2884  0
956.4   1.2905  0
956.37  1.2925  0
956.34  1.2946  0
956.31  1.2967  0
956.28  1.2988  0
956.25  1.3009  0
956.22  1.303   0
956.19  1.305   0
956.16  1.3071  0
956.13  1.3092  0
956.1   1.3113  0
956.07  1.3134  0
956.04  1.3154  0
956.01  1.3175  0
955.98  1.3196  0
955.95  1.3217  0
955.92  1.3238  0
955.89  1.3259  0
955.86  1.3279  0
955.83  1.33    0
955.8   1.3321  0
955.77  1.3342  0
955.74  1.3363  0
955.71  1.3383  0
955.68  1.3404  0
955.65  1.3425  0
955.62  1.3446  0
955.59  1.3467  0
955.56  1.3487  0
955.53  1.3508  0
955.5   1.3529  0
955.47  1.355   0
955.44  1.3571  0
955.41  1.3592  0
955.38  1.3612  0
955.35  1.3633  0
955.32  1.3654  0
955.29  1.3675  0
955.26  1.3696  0
955.23  1.3716  0
955.2   1.3737  0
955.17  1.3758  0
955.14  1.3779  0
955.11  1.38    0
955.08  1.382   0
955.05  1.3841  0
955.02  1.3862  0
954.99  1.3883  0
954.96  1.3904  0
954.93  1.3925  0
954.9   1.3945  0
954.87  1.3966  0
954.84  1.3987  0
954.81  1.4008  0
954.78  1.4029  0
954.75  1.4049  0
954.72  1.407   0
954.69  1.4091  0
954.66  1.4112  0
954.63  1.4133  0
954.6   1.4154  0
954.57  1.4174  0
954.54  1.4195  0
954.51  1.4216  0
954.48  1.4237  0
954.45  1.4258  0
954.42  1.4278  0
954.39  1.4299  0
954.36  1.432   0
954.33  1.4341  0
954.3   1.4362  0
954.27  1.4382  0
954.24  1.4403  0
954.21  1.4424  0
954.18  1.4445  0
954.15  1.4466  0
954.12  1.4487  0
954.09  1.4507  0
954.06  1.4528  0
954.03  1.4549  0
954     1.457   0
953.97  1.4591  0
953.94  1.4611  0
953.91  1.4632  0
953.88  1.4653  0
953.85  1.4674  0
953.82  1.4695  0
953.79  1.4715  0
953.76  1.4736  0
953.73  1.4757  0
953.7   1.4778  0
953.67  1.4799  0
953.64  1.482   0
953.61  1.484   0
953.58  1.4861  0
953.55  1.4882  0
953.52  1.4903  0
953.49  1.4924  0
953.46  1.4944  0
953.43  1.4965  0
953.4   1.4986  0
953.37  1.5007  0
953.34  1.5028  0
953.31  1.5049  0
953.28  1.5069  0
953.25  1.509   0
953.22  1.5111  0
953.19  1.5132  0
953.16  1.5153  0
953.13  1.5173  0
953.1   1.5194  0
953.07  1.5215  0
953.04  1.5236  0
953.01  1.5257  0
952.98  1.5277  0
952.95  1.5298  0
952.92  1.5319  0
952.89  1.534   0
952.86  1.5361  0
952.83  1.5382  0
952.8   1.5402  0
952.77  1.5423  0
952.74  1.5444  0
952.71  1.5465  0
952.68  1.5486  0
952.65  1.5506  0
952.62  1.5527  0
952.59  1.5548  0
952.56  1.5569  0
952.53  1.559   0
952.5   1.5611  0
952.47  1.5631  0
952.44  1.5652  0
952.41  1.5673  0
952.38  1.5694  0
952.35  1.5715  0
952.32  1.5735  0
952.29  1.5756  0
952.26  1.5777  0
952.23  1.5798  0
952.2   1.5819  0
952.17  1.5839  0
952.14  1.586   0
952.11  1.5881  0
952.08  1.5902  0
952.05  1.5923  0
952.02  1.5944  0
951.99  1.5964  0
951.96  1.5985  0
951.93  1.6006  0
951.9   1.6027  0
951.87  1.6048  0
951.84  1.6068  0
951.81  1.6089  0
951.78  1.611   0
951.75  1.6131  0
951.72  1.6152  0
951.69  1.6172  0
951.66  1.6193  0
951.63  1.6214  0
951.6   1.6235  0
951.57  1.6256  0
951.54  1.6277  0
951.51  1.6297  0
951.48  1.6318  0
951.45  1.6339  0
951.42  1.636   0
951.39  1.6381  0
951.36  1.6401  0
951.33  1.6422  0
951.3   1.6443  0
951.27  1.6464  0
951.24  1.6485  0
951.21  1.6506  0
951.18  1.6526  0
951.15  1.6547  0
951.12  1.6568  0
951.09  1.6589  0
951.06  1.661   0
951.03  1.663   0
951     1.6651  0
950.97  1.6672  0
950.94  1.6693  0
950.91  1.6714  0
950.88  1.6734  0
950.85  1.6755  0
950.82  1.6776  0
950.79  1.6797  0
950.76  1.6818  0
950.73  1.6839  0
950.7   1.6859  0
950.67  1.688   0
950.64  1.6901  0
950.61  1.6922  0
950.58  1.6943  0
950.55  1.6963  0
950.52  1.6984  0
950.49  1.7005  0
950.46  1.7026  0
950.43  1.7047  0
950.4   1.7067  0
950.37  1.7088  0
950.34  1.7109  0
950.31  1.713   0
950.28  1.7151  0
950.25  1.7172  0
950.22  1.7192  0
950.19  1.7213  0
950.16  1.7234  0
950.13  1.7255  0
950.1   1.7276  0
950.07  1.7296  0
950.04  1.7317  0
950.01  1.7338  0
949.98  1.7359  0
949.95  1.738   0
949.92  1.7401  0
949.89  1.7421  0
949.86  1.7442  0
949.83  1.7463  0
949.8   1.7484  0
949.77  1.7505  0
949.74  1.7525  0
949.71  1.7546  0
949.68  1.7567  0
949.65  1.7588  0
949.62  1.7609  0
949.59  1.7629  0
949.56  1.765   0
949.53  1.7671  0
949.5   1.7692  0
949.47  1.7713  0
949.44  1.7734  0
949.41  1.7754  0
949.38  1.7775  0
949.35  1.7796  0
949.32  1.7817  0
949.29  1.7838  0
949.26  1.7858  0
949.23  1.7879  0
949.2   1.79    0
949.17  1.7921  0
949.14  1.7942  0
949.11  1.7962  0
949.08  1.7983  0
949.05  1.8004  0
949.02  1.8025  0
948.99  1.8046  0
948.96  1.8067  0
948.93  1.8087  0
948.9   1.8108  0
948.87  1.8129  0
948.84  1.815   0
948.81  1.8171  0
948.78  1.8191  0
948.75  1.8212  0
948.72  1.8233  0
948.69  1.8254  0
948.66  1.8275  0
948.63  1.8296  0
948.6   1.8316  0
948.57  1.8337  0
948.54  1.8358  0
948.51  1.8379  0
948.48  1.84    0
948.45  1.842   0
948.42  1.8441  0
948.39  1.8462  0
948.36  1.8483  0
948.33  1.8504  0
948.3   1.8524  0
948.27  1.8545  0
948.24  1.8566  0
948.21  1.8587  0
948.18  1.8608  0
948.15  1.8629  0
948.12  1.8649  0
948.09  1.867   0
948.06  1.8691  0
948.03  1.8712  0
948     1.8733  0
947.97  1.8753  0
947.94  1.8774  0
947.91  1.8795  0
947.88  1.8816  0
947.85  1.8837  0
947.82  1.8857  0
947.79  1.8878  0
947.76  1.8899  0
947.73  1.892   0
947.7   1.8941  0
947.67  1.8962  0
947.64  1.8982  0
947.61  1.9003  0
947.58  1.9024  0
947.55  1.9045  0
947.52  1.9066  0
947.49  1.9086  0
947.46  1.9107  0
947.43  1.9128  0
947.4   1.9149  0
947.37  1.917   0
947.34  1.9191  0
947.31  1.9211  0
947.28  1.9232  0
947.25  1.9253  0
947.22  1.9274  0
947.19  1.9295  0
947.16  1.9315  0
947.13  1.9336  0
947.1   1.9357  0
947.07  1.9378  0
947.04  1.9399  0
947.01  1.9419  0
946.98  1.944   0
946.95  1.9461  0
946.92  1.9482  0
946.89  1.9503  0
946.86  1.9524  0
946.83  1.9544  0
946.8   1.9565  0
946.77  1.9586  0
946.74  1.9607  0
946.71  1.9628  0
946.68  1.9648  0
946.65  1.9669  0
946.62  1.969   0
946.59  1.9711  0
946.56  1.9732  0
946.53  1.9752  0
946.5   1.9773  0
946.47  1.9794  0
946.44  1.9815  0
946.41  1.9836  0
946.38  1.9857  0
946.35  1.9877  0
946.32  1.9898  0
946.29  1.9919  0
946.26  1.994   0
946.23  1.9961  0
946.2   1.9981  0
946.17  2.0002  0
946.14  2.0023  0
946.11  2.0044  0
946.08  2.0065  0
946.05  2.0086  0
946.02  2.0106  0
945.99  2.0127  0
945.96  2.0148  0
945.93  2.0169  0
945.9   2.019   0
945.87  2.021   0
945.84  2.0231  0
945.81  2.0252  0
945.78  2.0273  0
945.75  2.0294  0
945.72  2.0314  0
945.69  2.0335  0
945.66  2.0356  0
945.63  2.0377  0
945.6   2.0398  0
945.57  2.0419  0
945.54  2.0439  0
945.51  2.046   0
945.48  2.0481  0
945.45  2.0502  0
945.42  2.0523  0
945.39  2.0543  0
945.36  2.0564  0
945.33  2.0585  0
945.3   2.0606  0
945.27  2.0627  0
945.24  2.0647  0
945.21  2.0668  0
945.18  2.0689  0
945.15  2.071   0
945.12  2.0731  0
945.09  2.0752  0
945.06  2.0772  0
945.03  2.0793  0
945     2.0814  0
944.97  2.0835  0
944.94  2.0856  0
944.91  2.0876  0
944.88  2.0897  0
944.85  2.0918  0
944.82  2.0939  0
944.79  2.096   0
944.76  2.0981  0
944.73  2.1001  0
944.7   2.1022  0
944.67  2.1043  0
944.64  2.1064  0
944.61  2.1085  0
944.58  2.1105  0
944.55  2.1126  0
944.52  2.1147  0
944.49  2.1168  0
944.46  2.1189  0
944.43  2.1209  0
944.4   2.123   0
944.37  2.1251  0
944.34  2.1272  0
944.31  2.1293  0
944.28  2.1314  0
944.25  2.1334  0
944.22  2.1355  0
944.19  2.1376  0
944.16  2.1397  0
944.13  2.1418  0
944.1   2.1438  0
944.07  2.1459  0
944.04  2.148   0
944.01  2.1501  0
943.98  2.1522  0
943.95  2.1542  0
943.92  2.1563  0
943.89  2.1584  0
943.86  2.1605  0
943.83  2.1626  0
943.8   2.1647  0
943.77  2.1667  0
943.74  2.1688  0
943.71  2.1709  0
943.68  2.173   0
943.65  2.1751  0
943.62  2.1771  0
943.59  2.1792  0
943.56  2.1813  0
943.53  2.1834  0
943.5   2.1855  0
943.47  2.1876  0
943.44  2.1896  0
943.41  2.1917  0
943.38  2.1938  0
943.35  2.1959  0
943.32  2.198   0
943.29  2.2     0
943.26  2.2021  0
943.23  2.2042  0
943.2   2.2063  0
943.17  2.2084  0
943.14  2.2104  0
943.11  2.2125  0
943.08  2.2146  0
943.05  2.2167  0
943.02  2.2188  0
942.99  2.2209  0
942.96  2.2229  0
942.93  2.225   0
942.9   2.2271  0
942.87  2.2292  0
942.84  2.2313  0
942.81  2.2333  0
942.78  2.2354  0
942.75  2.2375  0
942.72  2.2396  0
942.69  2.2417  0
942.66  2.2437  0
942.63  2.2458  0
942.6   2.2479  0
942.57  2.25    0
942.54  2.2521  0
942.51  2.2542  0
942.48  2.2562  0
942.45  2.2583  0
942.42  2.2604  0
942.39  2.2625  0
942.36  2.2646  0
942.33  2.2666  0
942.3   2.2687  0
942.27  2.2708  0
942.24  2.2729  0
942.21  2.275   0
942.18  2.2771  0
942.15  2.2791  0
942.12  2.2812  0
942.09  2.2833  0
942.06  2.2854  0
942.03  2.2875  0
942     2.2895  0
941.97  2.2916  0
941.94  2.2937  0
941.91  2.2958  0
941.88  2.2979  0
941.85  2.2999  0
941.82  2.302   0
941.79  2.3041  0
941.76  2.3062  0
941.73  2.3083  0
941.7   2.3104  0
941.67  2.3124  0
941.64  2.3145  0
941.61  2.3166  0
941.58  2.3187  0
941.55  2.3208  0
941.52  2.3228  0
941.49  2.3249  0
941.46  2.327   0
941.43  2.3291  0
941.4   2.3312  0
941.37  2.3332  0
941.34  2.3353  0
941.31  2.3374  0
941.28  2.3395  0
941.25  2.3416  0
941.22  2.3437  0
941.19  2.3457  0
941.16  2.3478  0
941.13  2.3499  0
941.1   2.352   0
941.07  2.3541  0
941.04  2.3561  0
941.01  2.3582  0
940.98  2.3603  0
940.95  2.3624  0
940.92  2.3645  0
940.89  2.3666  0
940.86  2.3686  0
940.83  2.3707  0
940.8   2.3728  0
940.77  2.3749  0
940.74  2.377   0
940.71  2.379   0
940.68  2.3811  0
940.65  2.3832  0
940.62  2.3853  0
940.59  2.3874  0
940.56  2.3894  0
940.53  2.3915  0
940.5   2.3936  0
940.47  2.3957  0
940.44  2.3978  0
940.41  2.3999  0
940.38  2.4019  0
940.35  2.404   0
940.32  2.4061  0
940.29  2.4082  0
940.26  2.4103  0
940.23  2.4123  0
940.2   2.4144  0
940.17  2.4165  0
940.14  2.4186  0
940.11  2.4207  0
940.08  2.4227  0
940.05  2.4248  0
940.02  2.4269  0
939.99  2.429   0
939.96  2.4311  0
939.93  2.4332  0
939.9   2.4352  0
939.87  2.4373  0
939.84  2.4394  0
939.81  2.4415  0
939.78  2.4436  0
939.75  2.4456  0
939.72  2.4477  0
939.69  2.4498  0
939.66  2.4519  0
939.63  2.454   0
939.6   2.4561  0
939.57  2.4581  0
939.54  2.4602  0
939.51  2.4623  0
939.48  2.4644  0
939.45  2.4665  0
939.42  2.4685  0
939.39  2.4706  0
939.36  2.4727  0
939.33  2.4748  0
939.3   2.4769  0
939.27  2.4789  0
939.24  2.481   0
939.21  2.4831  0
939.18  2.4852  0
939.15  2.4873  0
939.12  2.4894  0
939.09  2.4914  0
939.06  2.4935  0
939.03  2.4956  0
939     2.4977  0
938.97  2.4998  0
938.94  2.5018  0
938.91  2.5039  0
938.88  2.506   0
938.85  2.5081  0
938.82  2.5102  0
938.79  2.5122  0
938.76  2.5143  0
938.73  2.5164  0
938.7   2.5185  0
938.67  2.5206  0
938.64  2.5227  0
938.61  2.5247  0
938.58  2.5268  0
938.55  2.5289  0
938.52  2.531   0
938.49  2.5331  0
938.46  2.5351  0
938.43  2.5372  0
938.4   2.5393  0
938.37  2.5414  0
938.34  2.5435  0
938.31  2.5456  0
938.28  2.5476  0
938.25  2.5497  0
938.22  2.5518  0
938.19  2.5539  0
938.16  2.556   0
938.13  2.558   0
938.1   2.5601  0
938.07  2.5622  0
938.04  2.5643  0
938.01  2.5664  0
937.98  2.5684  0
937.95  2.5705  0
937.92  2.5726  0
937.89  2.5747  0
937.86  2.5768  0
937.83  2.5789  0
937.8   2.5809  0
937.77  2.583   0
937.74  2.5851  0
937.71  2.5872  0
937.68  2.5893  0
937.65  2.5913  0
937.62  2.5934  0
937.59  2.5955  0
937.56  2.5976  0
937.53  2.5997  0
937.5   2.6018  0
937.47  2.6038  0
937.44  2.6059  0
937.41  2.608   0
937.38  2.6101  0
937.35  2.6122  0
937.32  2.6142  0
937.29  2.6163  0
937.26  2.6184  0
937.23  2.6205  0
937.2   2.6226  0
937.17  2.6246  0
937.14  2.6267  0
937.11  2.6288  0
937.08  2.6309  0
937.05  2.633   0
937.02  2.6351  0
936.99  0.1518  0
936.96  0.15188 0
936.93  0.15197 0
936.9   0.15205 0
936.87  0.15214 0
936.84  0.15222 0
936.81  0.1523  0
936.78  0.15239 0
936.75  0.15247 0
936.72  0.15255 0
936.69  0.15264 0
936.66  .15272  0
936.63  0.15281 0
936.6   0.15289 0
936.57  0.15297 0
936.54  0.15306 0
936.51  0.15314 0
936.48  0.15322 0
936.45  0.15331 0
936.42  0.15339 0
936.39  0.15348 0
936.36  0.15356 0
936.33  0.15364 0
936.3   0.15373 0
936.27  0.15381 0
936.24  0.1539  0
936.21  0.15398 0
936.18  0.15406 0
936.15  0.15415 0
936.12  0.15423 0
936.09  0.15431 0
936.06  0.1544  0
936.03  0.15448 0
936     0.15457 0
935.97  0.15465 0
935.94  .15473  0
935.91  0.15482 0
935.88  0.1549  0
935.85  0.15499 0
935.82  0.15507 0
935.79  0.15515 0
935.76  0.15524 0
935.73  0.15532 0
935.7   0.1554  0
935.67  0.15549 0
935.64  0.15557 0
935.61  0.15566 0
935.58  0.15574 0
935.55  0.15582 0
935.52  0.15591 0
935.49  0.15599 0
935.46  0.15607 0
935.43  0.15616 0
935.4   0.15624 0
935.37  0.15633 0
935.34  0.15641 0
935.31  0.15649 0
935.28  0.15658 0
935.25  0.15666 0
935.22  0.15675 0
935.19  0.15683 0
935.16  0.15691 0
935.13  0.157   0
935.1   0.15708 0
935.07  0.15716 0
935.04  0.15725 0
935.01  0.15733 0
934.98  2.7766  0
934.95  2.7787  0
934.92  2.7808  0
934.89  2.7828  0
934.86  2.7849  0
934.83  2.787   0
934.8   2.7891  0
934.77  2.7912  0
934.74  2.7932  0
934.71  2.7953  0
934.68  2.7974  0
934.65  2.7995  0
934.62  2.8016  0
934.59  2.8036  0
934.56  2.8057  0
934.53  2.8078  0
934.5   2.8099  0
934.47  2.812   0
934.44  2.8141  0
934.41  2.8161  0
934.38  2.8182  0
934.35  2.8203  0
934.32  2.8224  0
934.29  2.8245  0
934.26  2.8265  0
934.23  2.8286  0
934.2   2.8307  0
934.17  2.8328  0
934.14  2.8349  0
934.11  2.8369  0
934.08  2.839   0
934.05  2.8411  0
934.02  2.8432  0
933.99  2.8453  0
933.96  2.8474  0
933.93  2.8494  0
933.9   2.8515  0
933.87  2.8536  0
933.84  2.8557  0
933.81  2.8578  0
933.78  2.8598  0
933.75  2.8619  0
933.72  2.864   0
933.69  2.8661  0
933.66  2.8682  0
933.63  2.8703  0
933.6   2.8723  0
933.57  2.8744  0
933.54  2.8765  0
933.51  2.8786  0
933.48  2.8807  0
933.45  2.8827  0
933.42  2.8848  0
933.39  2.8869  0
933.36  2.889   0
933.33  2.8911  0
933.3   2.8931  0
933.27  2.8952  0
933.24  2.8973  0
933.21  2.8994  0
933.18  2.9015  0
933.15  2.9036  0
933.12  2.9056  0
933.09  2.9077  0
933.06  2.9098  0
933.03  2.9119  0
933     0.16295 0
932.97  0.16303 0
932.94  0.16312 0
932.91  0.1632  0
932.88  0.16328 0
932.85  0.16337 0
932.82  0.16345 0
932.79  0.16353 0
932.76  0.16362 0
932.73  0.1637  0
932.7   0.16379 0
932.67  0.16387 0
932.64  0.16395 0
932.61  0.16404 0
932.58  0.16412 0
932.55  0.16421 0
932.52  0.16429 0
932.49  0.16437 0
932.46  0.16446 0
932.43  0.16454 0
932.4   0.16462 0
932.37  0.16471 0
932.34  0.16479 0
932.31  0.16488 0
932.28  0.16496 0
932.25  0.16504 0
932.22  0.16513 0
932.19  0.16521 0
932.16  0.16529 0
932.13  0.16538 0
932.1   0.16546 0
932.07  0.16555 0
932.04  0.16563 0
932.01  0.16571 0
931.98  2.9847  0
931.95  2.9868  0
931.92  2.9889  0
931.89  2.991   0
931.86  2.9931  0
931.83  2.9951  0
931.8   2.9972  0
931.77  2.9993  0
931.74  3.0014  0
931.71  3.0035  0
931.68  3.0055  0
931.65  3.0076  0
931.62  3.0097  0
931.59  3.0118  0
931.56  3.0139  0
931.53  3.0159  0
931.5   3.018   0
931.47  3.0201  0
931.44  3.0222  0
931.41  3.0243  0
931.38  3.0264  0
931.35  3.0284  0
931.32  3.0305  0
931.29  3.0326  0
931.26  3.0347  0
931.23  3.0368  0
931.2   3.0388  0
931.17  3.0409  0
931.14  3.043   0
931.11  3.0451  0
931.08  3.0472  0
931.05  3.0493  0
931.02  3.0513  0
930.99  3.0534  0
930.96  3.0555  0
930.93  3.0576  0
930.9   3.0597  0
930.87  3.0617  0
930.84  3.0638  0
930.81  3.0659  0
930.78  3.068   0
930.75  3.0701  0
930.72  3.0721  0
930.69  3.0742  0
930.66  3.0763  0
930.63  3.0784  0
930.6   3.0805  0
930.57  3.0826  0
930.54  3.0846  0
930.51  3.0867  0
930.48  3.0888  0
930.45  3.0909  0
930.42  3.093   0
930.39  3.095   0
930.36  3.0971  0
930.33  3.0992  0
930.3   3.1013  0
930.27  3.1034  0
930.24  3.1054  0
930.21  3.1075  0
930.18  3.1096  0
930.15  3.1117  0
930.12  3.1138  0
930.09  3.1159  0
930.06  3.1179  0
930.03  3.12    0
930     0.17133 0
929.97  0.17141 0
929.94  0.1715  0
929.91  0.17158 0
929.88  0.17167 0
929.85  0.17175 0
929.82  0.17183 0
929.79  0.17192 0
929.76  0.172   0
929.73  0.17208 0
929.7   0.17217 0
929.67  0.17225 0
929.64  0.17234 0
929.61  0.17242 0
929.58  0.1725  0
929.55  0.17259 0
929.52  0.17267 0
929.49  0.17275 0
929.46  0.17284 0
929.43  0.17292 0
929.4   0.17301 0
929.37  0.17309 0
929.34  0.17317 0
929.31  .17326  0
929.28  0.17334 0
929.25  0.17343 0
929.22  0.17351 0
929.19  0.17359 0
929.16  0.17368 0
929.13  0.17376 0
929.1   0.17384 0
929.07  0.17393 0
929.04  0.17401 0
929.01  0.1741  0
928.98  0.17418 0
928.95  0.17426 0
928.92  0.17435 0
928.89  0.17443 0
928.86  0.17452 0
928.83  0.1746  0
928.8   0.17468 0
928.77  0.17477 0
928.74  0.17485 0
928.71  0.17493 0
928.68  0.17502 0
928.65  0.1751  0
928.62  0.17519 0
928.59  0.17527 0
928.56  0.17535 0
928.53  0.17544 0
928.5   0.17552 0
928.47  0.1756  0
928.44  0.17569 0
928.41  0.17577 0
928.38  0.17586 0
928.35  0.17594 0
928.32  0.17602 0
928.29  0.17611 0
928.26  0.17619 0
928.23  0.17628 0
928.2   0.17636 0
928.17  0.17644 0
928.14  0.17653 0
928.11  0.17661 0
928.08  0.17669 0
928.05  0.17678 0
928.02  0.17686 0
927.99  3.2616  0
927.96  3.2636  0
927.93  3.2657  0
927.9   3.2678  0
927.87  3.2699  0
927.84  3.272   0
927.81  3.274   0
927.78  3.2761  0
927.75  3.2782  0
927.72  3.2803  0
927.69  3.2824  0
927.66  3.2844  0
927.63  3.2865  0
927.6   3.2886  0
927.57  3.2907  0
927.54  3.2928  0
927.51  3.2949  0
927.48  3.2969  0
927.45  3.299   0
927.42  3.3011  0
927.39  3.3032  0
927.36  3.3053  0
927.33  3.3073  0
927.3   3.3094  0
927.27  3.3115  0
927.24  3.3136  0
927.21  3.3157  0
927.18  3.3178  0
927.15  3.3198  0
927.12  3.3219  0
927.09  3.324   0
927.06  3.3261  0
927.03  3.3282  0
927     3.3302  0
926.97  3.3323  0
926.94  3.3344  0
926.91  3.3365  0
926.88  3.3386  0
926.85  3.3406  0
926.82  3.3427  0
926.79  3.3448  0
926.76  3.3469  0
926.73  3.349   0
926.7   3.3511  0
926.67  3.3531  0
926.64  3.3552  0
926.61  3.3573  0
926.58  3.3594  0
926.55  3.3615  0
926.52  3.3635  0
926.49  3.3656  0
926.46  3.3677  0
926.43  3.3698  0
926.4   3.3719  0
926.37  3.3739  0
926.34  3.376   0
926.31  3.3781  0
926.28  3.3802  0
926.25  3.3823  0
926.22  3.3844  0
926.19  3.3864  0
926.16  3.3885  0
926.13  3.3906  0
926.1   3.3927  0
926.07  3.3948  0
926.04  3.3968  0
926.01  3.3989  0
925.98  0.18256 0
925.95  0.18265 0
925.92  0.18273 0
925.89  0.18281 0
925.86  0.1829  0
925.83  0.18298 0
925.8   0.18306 0
925.77  0.18315 0
925.74  0.18323 0
925.71  0.18332 0
925.68  0.1834  0
925.65  0.18348 0
925.62  0.18357 0
925.59  0.18365 0
925.56  0.18374 0
925.53  0.18382 0
925.5   0.1839  0
925.47  0.18399 0
925.44  0.18407 0
925.41  0.18415 0
925.38  0.18424 0
925.35  0.18432 0
925.32  0.18441 0
925.29  0.18449 0
925.26  0.18457 0
925.23  0.18466 0
925.2   0.18474 0
925.17  0.18483 0
925.14  0.18491 0
925.11  0.18499 0
925.08  0.18508 0
925.05  0.18516 0
925.02  0.18524 0
924.99  3.4694  0
924.96  3.4708  0
924.93  3.4721  0
924.9   3.4734  0
924.87  3.4747  0
924.84  3.476   0
924.81  3.4774  0
924.78  3.4787  0
924.75  3.48    0
924.72  3.4813  0
924.69  3.4826  0
924.66  3.484   0
924.63  3.4853  0
924.6   3.4866  0
924.57  3.4879  0
924.54  3.4892  0
924.51  3.4906  0
924.48  3.4919  0
924.45  3.4932  0
924.42  3.4945  0
924.39  3.4959  0
924.36  3.4972  0
924.33  3.4985  0
924.3   3.4998  0
924.27  3.5011  0
924.24  3.5025  0
924.21  3.5038  0
924.18  3.5051  0
924.15  3.5064  0
924.12  3.5077  0
924.09  3.5091  0
924.06  3.5104  0
924.03  3.5117  0
924     3.513   0
923.97  3.5143  0
923.94  3.5157  0
923.91  3.517   0
923.88  3.5183  0
923.85  3.5196  0
923.82  3.5209  0
923.79  3.5223  0
923.76  3.5236  0
923.73  3.5249  0
923.7   3.5262  0
923.67  3.5275  0
923.64  3.5289  0
923.61  3.5302  0
923.58  3.5315  0
923.55  3.5328  0
923.52  3.5341  0
923.49  3.5355  0
923.46  3.5368  0
923.43  3.5381  0
923.4   3.5394  0
923.37  3.5408  0
923.34  3.5421  0
923.31  3.5434  0
923.28  3.5447  0
923.25  3.546   0
923.22  3.5474  0
923.19  3.5487  0
923.16  3.55    0
923.13  3.5513  0
923.1   3.5526  0
923.07  3.554   0
923.04  3.5553  0
923.01  3.5566  0
922.98  0.19706 0
922.95  0.19723 0
922.92  0.19741 0
922.89  0.19758 0
922.86  0.19775 0
922.83  0.19793 0
922.8   0.1981  0
922.77  0.19828 0
922.74  0.19845 0
922.71  0.19863 0
922.68  0.1988  0
922.65  0.19898 0
922.62  0.19915 0
922.59  0.19933 0
922.56  0.1995  0
922.53  0.19968 0
922.5   0.19985 0
922.47  0.20002 0
922.44  0.2002  0
922.41  0.20037 0
922.38  0.20055 0
922.35  0.20072 0
922.32  0.2009  0
922.29  0.20107 0
922.26  0.20125 0
922.23  0.20142 0
922.2   0.2016  0
922.17  0.20177 0
922.14  0.20195 0
922.11  0.20212 0
922.08  0.20229 0
922.05  0.20247 0
922.02  0.20264 0
921.99  0.20282 0
921.96  3.6028  0
921.93  3.6041  0
921.9   3.6055  0
921.87  3.6068  0
921.84  3.6081  0
921.81  3.6094  0
921.78  3.6107  0
921.75  3.6121  0
921.72  3.6134  0
921.69  3.6147  0
921.66  3.616   0
921.63  3.6173  0
921.6   3.6187  0
921.57  3.62    0
921.54  3.6213  0
921.51  3.6226  0
921.48  3.624   0
921.45  3.6253  0
921.42  3.6266  0
921.39  3.6279  0
921.36  3.6292  0
921.33  3.6306  0
921.3   3.6319  0
921.27  3.6332  0
921.24  3.6345  0
921.21  3.6358  0
921.18  3.6372  0
921.15  3.6385  0
921.12  3.6398  0
921.09  3.6411  0
921.06  3.6424  0
921.03  3.6438  0
921     3.6451  0
920.97  3.6464  0
920.94  3.6477  0
920.91  3.649   0
920.88  3.6504  0
920.85  3.6517  0
920.82  3.653   0
920.79  3.6543  0
920.76  3.6556  0
920.73  3.657   0
920.7   3.6583  0
920.67  3.6596  0
920.64  3.6609  0
920.61  3.6622  0
920.58  3.6636  0
920.55  3.6649  0
920.52  3.6662  0
920.49  3.6675  0
920.46  3.6689  0
920.43  3.6702  0
920.4   3.6715  0
920.37  3.6728  0
920.34  3.6741  0
920.31  3.6755  0
920.28  3.6768  0
920.25  3.6781  0
920.22  3.6794  0
920.19  3.6807  0
920.16  3.6821  0
920.13  3.6834  0
920.1   3.6847  0
920.07  3.686   0
920.04  3.6873  0
920.01  0.21434 0
919.98  .21452  0
919.95  0.21469 0
919.92  0.21487 0
919.89  0.21504 0
919.86  0.21521 0
919.83  0.21539 0
919.8   0.21556 0
919.77  0.21574 0
919.74  0.21591 0
919.71  0.21609 0
919.68  0.21626 0
919.65  0.21644 0
919.62  0.21661 0
919.59  0.21679 0
919.56  0.21696 0
919.53  0.21714 0
919.5   0.21731 0
919.47  0.21748 0
919.44  0.21766 0
919.41  0.21783 0
919.38  0.21801 0
919.35  0.21818 0
919.32  0.21836 0
919.29  0.21853 0
919.26  0.21871 0
919.23  0.21888 0
919.2   0.21906 0
919.17  0.21923 0
919.14  0.21941 0
919.11  0.21958 0
919.08  0.21975 0
919.05  0.21993 0
919.02  0.2201  0
918.99  0.22028 0
918.96  0.22045 0
918.93  0.22063 0
918.9   0.2208  0
918.87  0.22098 0
918.84  0.22115 0
918.81  0.22133 0
918.78  0.2215  0
918.75  0.22168 0
918.72  0.22185 0
918.69  0.22202 0
918.66  0.2222  0
918.63  0.22237 0
918.6   0.22255 0
918.57  0.22272 0
918.54  0.2229  0
918.51  0.22307 0
918.48  0.22325 0
918.45  0.22342 0
918.42  0.2236  0
918.39  .22377  0
918.36  0.22394 0
918.33  0.22412 0
918.3   0.22429 0
918.27  0.22447 0
918.24  0.22464 0
918.21  0.22482 0
918.18  0.22499 0
918.15  0.22517 0
918.12  0.22534 0
918.09  0.22552 0
918.06  0.22569 0
918.03  0.22587 0
918     0.22604 0
917.97  0.22621 0
917.94  0.22639 0
917.91  0.22656 0
917.88  0.22674 0
917.85  0.22691 0
917.82  0.22709 0
917.79  0.22726 0
917.76  0.22744 0
917.73  0.22761 0
917.7   0.22779 0
917.67  0.22796 0
917.64  0.22814 0
917.61  0.22831 0
917.58  0.22848 0
917.55  0.22866 0
917.52  0.22883 0
917.49  0.22901 0
917.46  0.22918 0
917.43  0.22936 0
917.4   0.22953 0
917.37  0.22971 0
917.34  0.22988 0
917.31  0.23006 0
917.28  0.23023 0
917.25  0.2304  0
917.22  0.23058 0
917.19  0.23075 0
917.16  0.23093 0
917.13  0.2311  0
917.1   0.23128 0
917.07  0.23145 0
917.04  0.23163 0
917.01  0.2318  0
916.98  0.23198 0
916.95  0.23215 0
916.92  0.23233 0
916.89  0.2325  0
916.86  0.23267 0
916.83  0.23285 0
916.8   .23302  0
916.77  0.2332  0
916.74  0.23337 0
916.71  0.23355 0
916.68  0.23372 0
916.65  0.2339  0
916.62  0.23407 0
916.59  0.23425 0
916.56  0.23442 0
916.53  0.2346  0
916.5   0.23477 0
916.47  0.23494 0
916.44  0.23512 0
916.41  0.23529 0
916.38  0.23547 0
916.35  0.23564 0
916.32  0.23582 0
916.29  0.23599 0
916.26  0.23617 0
916.23  0.23634 0
916.2   0.23652 0
916.17  0.23669 0
916.14  0.23687 0
916.11  0.23704 0
916.08  0.23721 0
916.05  0.23739 0
916.02  0.23756 0
915.99  0.23774 0
915.96  0.23791 0
915.93  0.23809 0
915.9   0.23826 0
915.87  0.23844 0
915.84  0.23861 0
915.81  0.23879 0
915.78  0.23896 0
915.75  0.23913 0
915.72  0.23931 0
915.69  0.23948 0
915.66  0.23966 0
915.63  0.23983 0
915.6   0.24001 0
915.57  0.24018 0
915.54  0.24036 0
915.51  0.24053 0
915.48  0.24071 0
915.45  0.24088 0
915.42  0.24106 0
915.39  0.24123 0
915.36  0.2414  0
915.33  0.24158 0
915.3   0.24175 0
915.27  0.24193 0
915.24  0.2421  0
915.21  24228   0
915.18  0.24245 0
915.15  0.24263 0
915.12  0.2428  0
915.09  0.24298 0
915.06  0.24315 0
915.03  0.24333 0
915     0.2435  0
914.97  0.24367 0
914.94  0.24385 0
914.91  0.24402 0
914.88  0.2442  0
914.85  0.24437 0
914.82  0.24455 0
914.79  0.24472 0
914.76  0.2449  0
914.73  0.24507 0
914.7   0.24525 0
914.67  0.24542 0
914.64  0.2456  0
914.61  0.24577 0
914.58  0.24594 0
914.55  0.24612 0
914.52  0.24629 0
914.49  0.24647 0
914.46  0.24664 0
914.43  0.24682 0
914.4   0.24699 0
914.37  0.24717 0
914.34  0.24734 0
914.31  0.24752 0
914.28  0.24769 0
914.25  0.24787 0
914.22  0.24804 0
914.19  0.24821 0
914.16  0.24839 0
914.13  0.24856 0
914.1   0.24874 0
914.07  0.24891 0
914.04  0.24909 0
914.01  0.24926 0
913.98  0.24944 0
913.95  0.24961 0
913.92  0.24979 0
913.89  0.24996 0
913.86  0.25013 0
913.83  0.25031 0
913.8   0.25048 0
913.77  0.25066 0
913.74  0.25083 0
913.71  0.25101 0
913.68  0.25118 0
913.65  0.25136 0
913.62  0.25153 0
913.59  0.25171 0
913.56  0.25188 0
913.53  0.25206 0
913.5   0.25223 0
913.47  0.2524  0
913.44  0.25258 0
913.41  0.25275 0
913.38  0.25293 0
913.35  0.2531  0
913.32  0.25328 0
913.29  0.25345 0
913.26  0.25363 0
913.23  0.2538  0
913.2   0.25398 0
913.17  0.25415 0
913.14  0.25433 0
913.11  0.2545  0
913.08  0.25467 0
913.05  0.25485 0
913.02  0.25502 0
912.99  3.9977  0
912.96  3.999   0
912.93  4.0003  0
912.9   4.0016  0
912.87  4.003   0
912.84  4.0043  0
912.81  4.0056  0
912.78  4.0069  0
912.75  4.0082  0
912.72  4.0096  0
912.69  4.0109  0
912.66  4.0122  0
912.63  4.0135  0
912.6   4.0148  0
912.57  4.0162  0
912.54  4.0175  0
912.51  4.0188  0
912.48  4.0201  0
912.45  4.0215  0
912.42  4.0228  0
912.39  4.0241  0
912.36  4.0254  0
912.33  4.0267  0
912.3   4.0281  0
912.27  4.0294  0
912.24  4.0307  0
912.21  4.032   0
912.18  4.0333  0
912.15  4.0347  0
912.12  4.036   0
912.09  4.0373  0
912.06  4.0386  0
912.03  4.0399  0
912     4.0413  0
911.97  4.0426  0
911.94  4.0439  0
911.91  4.0452  0
911.88  4.0465  0
911.85  4.0479  0
911.82  4.0492  0
911.79  4.0505  0
911.76  4.0518  0
911.73  4.0531  0
911.7   4.0545  0
911.67  4.0558  0
911.64  4.0571  0
911.61  4.0584  0
911.58  4.0597  0
911.55  4.0611  0
911.52  4.0624  0
911.49  4.0637  0
911.46  4.065   0
911.43  4.0664  0
911.4   4.0677  0
911.37  4.069   0
911.34  4.0703  0
911.31  4.0716  0
911.28  4.073   0
911.25  4.0743  0
911.22  4.0756  0
911.19  4.0769  0
911.16  4.0782  0
911.13  4.0796  0
911.1   4.0809  0
911.07  4.0822  0
911.04  4.0835  0
911.01  4.0848  0
910.98  4.0862  0
910.95  4.0875  0
910.92  4.0888  0
910.89  4.0901  0
910.86  4.0914  0
910.83  4.0928  0
910.8   4.0941  0
910.77  4.0954  0
910.74  4.0967  0
910.71  4.098   0
910.68  4.0994  0
910.65  4.1007  0
910.62  4.102   0
910.59  4.1033  0
910.56  4.1046  0
910.53  4.106   0
910.5   4.1073  0
910.47  4.1086  0
910.44  4.1099  0
910.41  4.1113  0
910.38  4.1126  0
910.35  4.1139  0
910.32  4.1152  0
910.29  4.1165  0
910.26  4.1179  0
910.23  4.1192  0
910.2   4.1205  0
910.17  4.1218  0
910.14  4.1231  0
910.11  4.1245  0
910.08  4.1258  0
910.05  4.1271  0
910.02  4.1284  0
909.99  4.1297  0
909.96  4.1311  0
909.93  4.1324  0
909.9   4.1337  0
909.87  4.135   0
909.84  4.1363  0
909.81  4.1377  0
909.78  4.139   0
909.75  4.1403  0
909.72  4.1416  0
909.69  4.1429  0
909.66  4.1443  0
909.63  4.1456  0
909.6   4.1469  0
909.57  4.1482  0
909.54  4.1495  0
909.51  4.1509  0
909.48  4.1522  0
909.45  4.1535  0
909.42  4.1548  0
909.39  4.1562  0
909.36  4.1575  0
909.33  4.1588  0
909.3   4.1601  0
909.27  4.1614  0
909.24  4.1628  0
909.21  4.1641  0
909.18  4.1654  0
909.15  4.1667  0
909.12  4.168   0
909.09  4.1694  0
909.06  4.1707  0
909.03  4.172   0
909     4.1733  0
908.97  4.1746  0
908.94  4.176   0
908.91  4.1773  0
908.88  4.1786  0
908.85  4.1799  0
908.82  4.1812  0
908.79  4.1826  0
908.76  4.1839  0
908.73  4.1852  0
908.7   4.1865  0
908.67  4.1878  0
908.64  4.1892  0
908.61  4.1905  0
908.58  4.1918  0
908.55  4.1931  0
908.52  4.1944  0
908.49  4.1958  0
908.46  4.1971  0
908.43  4.1984  0
908.4   4.1997  0
908.37  4.2011  0
908.34  4.2024  0
908.31  4.2037  0
908.28  4.205   0
908.25  4.2063  0
908.22  4.2077  0
908.19  4.209   0
908.16  4.2103  0
908.13  4.2116  0
908.1   4.2129  0
908.07  4.2143  0
908.04  4.2156  0
908.01  4.2169  0
907.98  4.2182  0
907.95  4.2195  0
907.92  4.2209  0
907.89  4.2222  0
907.86  4.2235  0
907.83  4.2248  0
907.8   4.2261  0
907.77  4.2275  0
907.74  4.2288  0
907.71  4.2301  0
907.68  4.2314  0
907.65  4.2327  0
907.62  4.2341  0
907.59  4.2354  0
907.56  4.2367  0
907.53  4.238   0
907.5   4.2393  0
907.47  4.2407  0
907.44  4.242   0
907.41  4.2433  0
907.38  4.2446  0
907.35  4.246   0
907.32  4.2473  0
907.29  4.2486  0
907.26  4.2499  0
907.23  4.2512  0
907.2   4.2526  0
907.17  4.2539  0
907.14  4.2552  0
907.11  4.2565  0
907.08  4.2578  0
907.05  4.2592  0
907.02  4.2605  0
906.99  4.2618  0
906.96  4.2631  0
906.93  4.2644  0
906.9   4.2658  0
906.87  4.2671  0
906.84  4.2684  0
906.81  4.2697  0
906.78  4.271   0
906.75  4.2724  0
906.72  4.2737  0
906.69  4.275   0
906.66  4.2763  0
906.63  4.2776  0
906.6   4.279   0
906.57  4.2803  0
906.54  4.2816  0
906.51  4.2829  0
906.48  4.2843  0
906.45  4.2856  0
906.42  4.2869  0
906.39  4.2882  0
906.36  4.2895  0
906.33  4.2909  0
906.3   4.2922  0
906.27  4.2935  0
906.24  4.2948  0
906.21  4.2961  0
906.18  4.2975  0
906.15  4.2988  0
906.12  4.3001  0
906.09  4.3014  0
906.06  4.3027  0
906.03  4.3041  0
906     4.3054  0
905.97  4.3067  0
905.94  4.308   0
905.91  4.3093  0
905.88  4.3107  0
905.85  4.312   0
905.82  4.3133  0
905.79  4.3146  0
905.76  4.3159  0
905.73  4.3173  0
905.7   4.3186  0
905.67  4.3199  0
905.64  4.3212  0
905.61  4.3225  0
905.58  4.3239  0
905.55  4.3252  0
905.52  4.3265  0
905.49  4.3278  0
905.46  4.3292  0
905.43  4.3305  0
905.4   4.3318  0
905.37  4.3331  0
905.34  4.3344  0
905.31  4.3358  0
905.28  4.3371  0
905.25  4.3384  0
905.22  4.3397  0
905.19  4.341   0
905.16  4.3424  0
905.13  4.3437  0
905.1   4.345   0
905.07  4.3463  0
905.04  4.3476  0
905.01  4.349   0
904.98  4.3503  0
904.95  4.3516  0
904.92  4.3529  0
904.89  4.3542  0
904.86  4.3556  0
904.83  4.3569  0
904.8   4.3582  0
904.77  4.3595  0
904.74  4.3608  0
904.71  4.3622  0
904.68  4.3635  0
904.65  4.3648  0
904.62  4.3661  0
904.59  4.3674  0
904.56  4.3688  0
904.53  4.3701  0
904.5   4.3714  0
904.47  4.3727  0
904.44  4.3741  0
904.41  4.3754  0
904.38  4.3767  0
904.35  4.378   0
904.32  4.3793  0
904.29  4.3807  0
904.26  4.382   0
904.23  4.3833  0
904.2   4.3846  0
904.17  4.3859  0
904.14  4.3873  0
904.11  4.3886  0
904.08  4.3899  0
904.05  4.3912  0
904.02  4.3925  0
903.99  4.3939  0
903.96  4.3952  0
903.93  4.3965  0
903.9   4.3978  0
903.87  4.3991  0
903.84  4.4005  0
903.81  4.4018  0
903.78  4.4031  0
903.75  4.4044  0
903.72  4.4057  0
903.69  4.4071  0
903.66  4.4084  0
903.63  4.4097  0
903.6   4.411   0
903.57  4.4123  0
903.54  4.4137  0
903.51  4.415   0
903.48  4.4163  0
903.45  4.4176  0
903.42  4.419   0
903.39  4.4203  0
903.36  4.4216  0
903.33  4.4229  0
903.3   4.4242  0
903.27  4.4256  0
903.24  4.4269  0
903.21  4.4282  0
903.18  4.4295  0
903.15  4.4308  0
903.12  4.4322  0
903.09  4.4335  0
903.06  4.4348  0
903.03  4.4361  0
903     4.4374  0
902.97  4.4388  0
902.94  4.4401  0
902.91  4.4414  0
902.88  4.4427  0
902.85  4.444   0
902.82  4.4454  0
902.79  4.4467  0
902.76  4.448   0
902.73  4.4493  0
902.7   4.4506  0
902.67  4.452   0
902.64  4.4533  0
902.61  4.4546  0
902.58  4.4559  0
902.55  4.4572  0
902.52  4.4586  0
902.49  4.4599  0
902.46  4.4612  0
902.43  4.4625  0
902.4   4.4639  0
902.37  4.4652  0
902.34  4.4665  0
902.31  4.4678  0
902.28  4.4691  0
902.25  4.4705  0
902.22  4.4718  0
902.19  4.4731  0
902.16  4.4744  0
902.13  4.4757  0
902.1   4.4771  0
902.07  4.4784  0
902.04  4.4797  0
902.01  4.481   0
901.98  4.4823  0
901.95  4.4837  0
901.92  4.485   0
901.89  4.4863  0
901.86  4.4876  0
901.83  4.4889  0
901.8   4.4903  0
901.77  4.4916  0
901.74  4.4929  0
901.71  4.4942  0
901.68  4.4955  0
901.65  4.4969  0
901.62  4.4982  0
901.59  4.4995  0
901.56  4.5008  0
901.53  4.5021  0
901.5   4.5035  0
901.47  4.5048  0
901.44  4.5061  0
901.41  4.5074  0
901.38  4.5088  0
901.35  4.5101  0
901.32  4.5114  0
901.29  4.5127  0
901.26  4.514   0
901.23  4.5154  0
901.2   4.5167  0
901.17  4.518   0
901.14  4.5193  0
901.11  4.5206  0
901.08  4.522   0
901.05  4.5233  0
901.02  4.5246  0
900.99  4.5259  0
900.96  4.5272  0
900.93  4.5286  0
900.9   4.5299  0
900.87  4.5312  0
900.84  4.5325  0
900.81  4.5338  0
900.78  4.5352  0
900.75  4.5365  0
900.72  4.5378  0
900.69  4.5391  0
900.66  4.5404  0
900.63  4.5418  0
900.6   4.5431  0
900.57  4.5444  0
900.54  4.5457  0
900.51  4.547   0
900.48  4.5484  0
900.45  4.5497  0
900.42  4.551   0
900.39  4.5523  0
900.36  4.5537  0
900.33  4.555   0
900.3   4.5563  0
900.27  4.5576  0
900.24  4.5589  0
900.21  4.5603  0
900.18  4.5616  0
900.15  4.5629  0
900.12  4.5642  0
900.09  4.5655  0
900.06  4.5669  0
900.03  4.5682  0
900     4.5695  0
899.97  4.5708  0
899.94  4.5721  0
899.91  4.5735  0
899.88  4.5748  0
899.85  4.5761  0
899.82  4.5774  0
899.79  4.5787  0
899.76  4.5801  0
899.73  4.5814  0
899.7   4.5827  0
899.67  4.584   0
899.64  4.5853  0
899.61  4.5867  0
899.58  4.588   0
899.55  4.5893  0
899.52  4.5906  0
899.49  4.592   0
899.46  4.5933  0
899.43  4.5946  0
899.4   4.5959  0
899.37  4.5972  0
899.34  4.5986  0
899.31  4.5999  0
899.28  4.6012  0
899.25  4.6025  0
899.22  4.6038  0
899.19  4.6052  0
899.16  4.6065  0
899.13  4.6078  0
899.1   4.6091  0
899.07  4.6104  0
899.04  4.6118  0
899.01  4.6131  0
898.98  4.6144  0
898.95  4.6157  0
898.92  4.617   0
898.89  4.6184  0
898.86  4.6197  0
898.83  4.621   0
898.8   4.6223  0
898.77  4.6236  0
898.74  4.625   0
898.71  4.6263  0
898.68  4.6276  0
898.65  4.6289  0
898.62  4.6302  0
898.59  4.6316  0
898.56  4.6329  0
898.53  4.6342  0
898.5   4.6355  0
898.47  4.6369  0
898.44  4.6382  0
898.41  4.6395  0
898.38  4.6408  0
898.35  4.6421  0
898.32  4.6435  0
898.29  4.6448  0
898.26  4.6461  0
898.23  4.6474  0
898.2   4.6487  0
898.17  4.6501  0
898.14  4.6514  0
898.11  4.6527  0
898.08  4.654   0
898.05  4.6553  0
898.02  4.6567  0
897.99  4.658   0
897.96  4.6593  0
897.93  4.6606  0
897.9   4.6619  0
897.87  4.6633  0
897.84  4.6646  0
897.81  4.6659  0
897.78  4.6672  0
897.75  4.6685  0
897.72  4.6699  0
897.69  4.6712  0
897.66  4.6725  0
897.63  4.6738  0
897.6   4.6751  0
897.57  4.6765  0
897.54  4.6778  0
897.51  4.6791  0
897.48  4.6804  0
897.45  4.6818  0
897.42  4.6831  0
897.39  4.6844  0
897.36  4.6857  0
897.33  4.687   0
897.3   4.6884  0
897.27  4.6897  0
897.24  4.691   0
897.21  4.6923  0
897.18  4.6936  0
897.15  4.695   0
897.12  4.6963  0
897.09  4.6976  0
897.06  4.6989  0
897.03  4.7002  0
897     4.7016  0
896.97  4.7029  0
896.94  4.7042  0
896.91  4.7055  0
896.88  4.7068  0
896.85  4.7082  0
896.82  4.7095  0
896.79  4.7108  0
896.76  4.7121  0
896.73  4.7134  0
896.7   4.7148  0
896.67  4.7161  0
896.64  4.7174  0
896.61  4.7187  0
896.58  4.72    0
896.55  4.7214  0
896.52  4.7227  0
896.49  4.724   0
896.46  4.7253  0
896.43  4.7267  0
896.4   4.728   0
896.37  4.7293  0
896.34  4.7306  0
896.31  4.7319  0
896.28  4.7333  0
896.25  4.7346  0
896.22  4.7359  0
896.19  4.7372  0
896.16  4.7385  0
896.13  4.7399  0
896.1   4.7412  0
896.07  4.7425  0
896.04  4.7438  0
896.01  4.7451  0
895.98  4.7465  0
895.95  4.7478  0
895.92  4.7491  0
895.89  4.7504  0
895.86  4.7517  0
895.83  4.7531  0
895.8   4.7544  0
895.77  4.7557  0
895.74  4.757   0
895.71  4.7583  0
895.68  4.7597  0
895.65  4.761   0
895.62  4.7623  0
895.59  4.7636  0
895.56  4.7649  0
895.53  4.7663  0
895.5   4.7676  0
895.47  4.7689  0
895.44  4.7702  0
895.41  4.7716  0
895.38  4.7729  0
895.35  4.7742  0
895.32  4.7755  0
895.29  4.7768  0
895.26  4.7782  0
895.23  4.7795  0
895.2   4.7808  0
895.17  4.7821  0
895.14  4.7834  0
895.11  4.7848  0
895.08  4.7861  0
895.05  4.7874  0
895.02  4.7887  0
894.99  4.79    0
894.96  4.7914  0
894.93  4.7927  0
894.9   4.794   0
894.87  4.7953  0
894.84  4.7966  0
894.81  4.798   0
894.78  4.7993  0
894.75  4.8006  0
894.72  4.8019  0
894.69  4.8032  0
894.66  4.8046  0
894.63  4.8059  0
894.6   4.8072  0
894.57  4.8085  0
894.54  4.8098  0
894.51  4.8112  0
894.48  4.8125  0
894.45  4.8138  0
894.42  4.8151  0
894.39  4.8165  0
894.36  4.8178  0
894.33  4.8191  0
894.3   4.8204  0
894.27  4.8217  0
894.24  4.8231  0
894.21  4.8244  0
894.18  4.8257  0
894.15  4.827   0
894.12  4.8283  0
894.09  4.8297  0
894.06  4.831   0
894.03  4.8323  0
894     4.8336  0
893.97  4.8349  0
893.94  4.8363  0
893.91  4.8376  0
893.88  4.8389  0
893.85  4.8402  0
893.82  4.8415  0
893.79  4.8429  0
893.76  4.8442  0
893.73  4.8455  0
893.7   4.8468  0
893.67  4.8481  0
893.64  4.8495  0
893.61  4.8508  0
893.58  4.8521  0
893.55  4.8534  0
893.52  4.8547  0
893.49  4.8561  0
893.46  4.8574  0
893.43  4.8587  0
893.4   4.86    0
893.37  4.8614  0
893.34  4.8627  0
893.31  4.864   0
893.28  4.8653  0
893.25  4.8666  0
893.22  4.868   0
893.19  4.8693  0
893.16  4.8706  0
893.13  4.8719  0
893.1   4.8732  0
893.07  4.8746  0
893.04  4.8759  0
893.01  4.8772  0
892.98  4.8785  0
892.95  4.8798  0
892.92  4.8812  0
892.89  4.8825  0
892.86  4.8838  0
892.83  4.8851  0
892.8   4.8864  0
892.77  4.8878  0
892.74  4.8891  0
892.71  4.8904  0
892.68  4.8917  0
892.65  4.893   0
892.62  4.8944  0
892.59  4.8957  0
892.56  4.897   0
892.53  4.8983  0
892.5   4.8997  0
892.47  4.901   0
892.44  4.9023  0
892.41  4.9036  0
892.38  4.9049  0
892.35  4.9063  0
892.32  4.9076  0
892.29  4.9089  0
892.26  4.9102  0
892.23  4.9115  0
892.2   4.9129  0
892.17  4.9142  0
892.14  4.9155  0
892.11  4.9168  0
892.08  4.9181  0
892.05  4.9195  0
892.02  4.9208  0
891.99  4.9221  0
891.96  4.9234  0
891.93  4.9247  0
891.9   4.9261  0
891.87  4.9274  0
891.84  4.9287  0
891.81  4.93    0
891.78  4.9313  0
891.75  4.9327  0
891.72  4.934   0
891.69  4.9353  0
891.66  4.9366  0
891.63  4.9379  0
891.6   4.9393  0
891.57  4.9406  0
891.54  4.9419  0
891.51  4.9432  0
891.48  4.9446  0
891.45  4.9459  0
891.42  4.9472  0
891.39  4.9485  0
891.36  4.9498  0
891.33  4.9512  0
891.3   4.9525  0
891.27  4.9538  0
891.24  4.9551  0
891.21  4.9564  0
891.18  4.9578  0
891.15  4.9591  0
891.12  4.9604  0
891.09  4.9617  0
891.06  4.963   0
891.03  4.9644  0
891     4.9657  0
890.97  4.967   0
890.94  4.9683  0
890.91  4.9696  0
890.88  4.971   0
890.85  4.9723  0
890.82  4.9736  0
890.79  4.9749  0
890.76  4.9762  0
890.73  4.9776  0
890.7   4.9789  0
890.67  4.9802  0
890.64  4.9815  0
890.61  4.9828  0
890.58  4.9842  0
890.55  4.9855  0
890.52  4.9868  0
890.49  4.9881  0
890.46  4.9895  0
890.43  4.9908  0
890.4   4.9921  0
890.37  4.9934  0
890.34  4.9947  0
890.31  4.9961  0
890.28  4.9974  0
890.25  4.9987  0
890.22  5       0
890.19  5.0013  0
890.16  5.0027  0
890.13  5.004   0
890.1   5.0053  0
890.07  5.0066  0
890.04  5.0079  0
890.01  5.0093  0
889.98  5.0106  0
889.95  5.0119  0
889.92  5.0132  0
889.89  5.0145  0
889.86  5.0159  0
889.83  5.0172  0
889.8   5.0185  0
889.77  5.0198  0
889.74  5.0211  0
889.71  5.0225  0
889.68  5.0238  0
889.65  5.0251  0
889.62  5.0264  0
889.59  5.0277  0
889.56  5.0291  0
889.53  5.0304  0
889.5   5.0317  0
889.47  5.033   0
889.44  5.0344  0
889.41  5.0357  0
889.38  5.037   0
889.35  5.0383  0
889.32  5.0396  0
889.29  5.041   0
889.26  5.0423  0
889.23  5.0436  0
889.2   5.0449  0
889.17  5.0462  0
889.14  5.0476  0
889.11  5.0489  0
889.08  5.0502  0
889.05  5.0515  0
889.02  5.0528  0
888.99  5.0542  0
888.96  5.0555  0
888.93  5.0568  0
888.9   5.0581  0
888.87  5.0594  0
888.84  5.0608  0
888.81  5.0621  0
888.78  5.0634  0
888.75  5.0647  0
888.72  5.066   0
888.69  5.0674  0
888.66  5.0687  0
888.63  5.07    0
888.6   5.0713  0
888.57  5.0726  0
888.54  5.074   0
888.51  5.0753  0
888.48  5.0766  0
888.45  5.0779  0
888.42  5.0793  0
888.39  5.0806  0
888.36  5.0819  0
888.33  5.0832  0
888.3   5.0845  0
888.27  5.0859  0
888.24  5.0872  0
888.21  5.0885  0
888.18  5.0898  0
888.15  5.0911  0
888.12  5.0925  0
888.09  5.0938  0
888.06  5.0951  0
888.03  5.0964  0
888     5.0977  0
887.97  5.0991  0
887.94  5.1004  0
887.91  5.1017  0
887.88  5.103   0
887.85  5.1043  0
887.82  5.1057  0
887.79  5.107   0
887.76  5.1083  0
887.73  5.1096  0
887.7   5.1109  0
887.67  5.1123  0
887.64  5.1136  0
887.61  5.1149  0
887.58  5.1162  0
887.55  5.1175  0
887.52  5.1189  0
887.49  5.1202  0
887.46  5.1215  0
887.43  5.1228  0
887.4   5.1242  0
887.37  5.1255  0
887.34  5.1268  0
887.31  5.1281  0
887.28  5.1294  0
887.25  5.1308  0
887.22  5.1321  0
887.19  5.1334  0
887.16  5.1347  0
887.13  5.136   0
887.1   5.1374  0
887.07  5.1387  0
887.04  5.14    0
887.01  5.1413  0
886.98  5.1426  0
886.95  5.144   0
886.92  5.1453  0
886.89  5.1466  0
886.86  5.1479  0
886.83  5.1492  0
886.8   5.1506  0
886.77  5.1519  0
886.74  5.1532  0
886.71  5.1545  0
886.68  5.1558  0
886.65  5.1572  0
886.62  5.1585  0
886.59  5.1598  0
886.56  5.1611  0
886.53  5.1624  0
886.5   5.1638  0
886.47  5.1651  0
886.44  5.1664  0
886.41  5.1677  0
886.38  5.1691  0
886.35  5.1704  0
886.32  5.1717  0
886.29  5.173   0
886.26  5.1743  0
886.23  5.1757  0
886.2   5.177   0
886.17  5.1783  0
886.14  5.1796  0
886.11  5.1809  0
886.08  5.1823  0
886.05  5.1836  0
886.02  5.1849  0
885.99  5.1862  0
885.96  5.1875  0
885.93  5.1889  0
885.9   5.1902  0
885.87  5.1915  0
885.84  5.1928  0
885.81  5.1941  0
885.78  5.1955  0
885.75  5.1968  0
885.72  5.1981  0
885.69  5.1994  0
885.66  5.2007  0
885.63  5.2021  0
885.6   5.2034  0
885.57  5.2047  0
885.54  5.206   0
885.51  5.2073  0
885.48  5.2087  0
885.45  5.21    0
885.42  5.2113  0
885.39  5.2126  0
885.36  5.214   0
885.33  5.2153  0
885.3   5.2166  0
885.27  5.2179  0
885.24  5.2192  0
885.21  5.2206  0
885.18  5.2219  0
885.15  5.2232  0
885.12  5.2245  0
885.09  5.2258  0
885.06  5.2272  0
885.03  5.2285  0
885     5.2298  0
884.97  5.2311  0
884.94  5.2324  0
884.91  5.2338  0
884.88  5.2351  0
884.85  5.2364  0
884.82  5.2377  0
884.79  5.239   0
884.76  5.2404  0
884.73  5.2417  0
884.7   5.243   0
884.67  5.2443  0
884.64  5.2456  0
884.61  5.247   0
884.58  5.2483  0
884.55  5.2496  0
884.52  5.2509  0
884.49  5.2523  0
884.46  5.2536  0
884.43  5.2549  0
884.4   5.2562  0
884.37  5.2575  0
884.34  5.2589  0
884.31  5.2602  0
884.28  5.2615  0
884.25  5.2628  0
884.22  5.2641  0
884.19  5.2655  0
884.16  5.2668  0
884.13  5.2681  0
884.1   5.2694  0
884.07  5.2707  0
884.04  5.2721  0
884.01  5.2734  0
883.98  5.2747  0
883.95  5.276   0
883.92  5.2773  0
883.89  5.2787  0
883.86  5.28    0
883.83  5.2813  0
883.8   5.2826  0
883.77  5.2839  0
883.74  5.2853  0
883.71  5.2866  0
883.68  5.2879  0
883.65  5.2892  0
883.62  5.2905  0
883.59  5.2919  0
883.56  5.2932  0
883.53  5.2945  0
883.5   5.2958  0
883.47  5.2972  0
883.44  5.2985  0
883.41  5.2998  0
883.38  5.3011  0
883.35  5.3024  0
883.32  5.3038  0
883.29  5.3051  0
883.26  5.3064  0
883.23  5.3077  0
883.2   5.309   0
883.17  5.3104  0
883.14  5.3117  0
883.11  5.313   0
883.08  5.3143  0
883.05  5.3156  0
883.02  5.317   0
882.99  5.3183  0
882.96  5.3196  0
882.93  5.3209  0
882.9   5.3222  0
882.87  5.3236  0
882.84  5.3249  0
882.81  5.3262  0
882.78  5.3275  0
882.75  5.3288  0
882.72  5.3302  0
882.69  5.3315  0
882.66  5.3328  0
882.63  5.3341  0
882.6   5.3354  0
882.57  5.3368  0
882.54  5.3381  0
882.51  5.3394  0
882.48  5.3407  0
882.45  5.3421  0
882.42  5.3434  0
882.39  5.3447  0
882.36  5.346   0
882.33  5.3473  0
882.3   5.3487  0
882.27  5.35    0
882.24  5.3513  0
882.21  5.3526  0
882.18  5.3539  0
882.15  5.3553  0
882.12  5.3566  0
882.09  5.3579  0
882.06  5.3592  0
882.03  5.3605  0
882     5.3619  0
881.97  5.3632  0
881.94  5.3645  0
881.91  5.3658  0
881.88  5.3671  0
881.85  5.3685  0
881.82  5.3698  0
881.79  5.3711  0
881.76  5.3724  0
881.73  5.3737  0
881.7   5.3751  0
881.67  5.3764  0
881.64  5.3777  0
881.61  5.379   0
881.58  5.3803  0
881.55  5.3817  0
881.52  5.383   0
881.49  5.3843  0
881.46  5.3856  0
881.43  5.387   0
881.4   5.3883  0
881.37  5.3896  0
881.34  5.3909  0
881.31  5.3922  0
881.28  5.3936  0
881.25  5.3949  0
881.22  5.3962  0
881.19  5.3975  0
881.16  5.3988  0
881.13  5.4002  0
881.1   5.4015  0
881.07  5.4028  0
881.04  5.4041  0
881.01  5.4054  0
880.98  5.4068  0
880.95  5.4081  0
880.92  5.4094  0
880.89  5.4107  0
880.86  5.412   0
880.83  5.4134  0
880.8   5.4147  0
880.77  5.416   0
880.74  5.4173  0
880.71  5.4186  0
880.68  5.42    0
880.65  5.4213  0
880.62  5.4226  0
880.59  5.4239  0
880.56  5.4252  0
880.53  5.4266  0
880.5   5.4279  0
880.47  5.4292  0
880.44  5.4305  0
880.41  5.4319  0
880.38  5.4332  0
880.35  5.4345  0
880.32  5.4358  0
880.29  5.4371  0
880.26  5.4385  0
880.23  5.4398  0
880.2   5.4411  0
880.17  5.4424  0
880.14  5.4437  0
880.11  5.4451  0
880.08  5.4464  0
880.05  5.4477  0
880.02  5.449   0
879.99  5.4503  0
879.96  5.4517  0
879.93  5.453   0
879.9   5.4543  0
879.87  5.4556  0
879.84  5.4569  0
879.81  5.4583  0
879.78  5.4596  0
879.75  5.4609  0
879.72  5.4622  0
879.69  5.4635  0
879.66  5.4649  0
879.63  5.4662  0
879.6   5.4675  0
879.57  5.4688  0
879.54  5.4701  0
879.51  5.4715  0
879.48  5.4728  0
879.45  5.4741  0
879.42  5.4754  0
879.39  5.4768  0
879.36  5.4781  0
879.33  5.4794  0
879.3   5.4807  0
879.27  5.482   0
879.24  5.4834  0
879.21  5.4847  0
879.18  5.486   0
879.15  5.4873  0
879.12  5.4886  0
879.09  5.49    0
879.06  5.4913  0
879.03  5.4926  0
879     5.4939  0
878.97  5.4952  0
878.94  5.4966  0
878.91  5.4979  0
878.88  5.4992  0
878.85  5.5005  0
878.82  5.5018  0
878.79  5.5032  0
878.76  5.5045  0
878.73  5.5058  0
878.7   5.5071  0
878.67  5.5084  0
878.64  5.5098  0
878.61  5.5111  0
878.58  5.5124  0
878.55  5.5137  0
878.52  5.515   0
878.49  5.5164  0
878.46  5.5177  0
878.43  5.519   0
878.4   5.5203  0
878.37  5.5217  0
878.34  5.523   0
878.31  5.5243  0
878.28  5.5256  0
878.25  5.5269  0
878.22  5.5283  0
878.19  5.5296  0
878.16  5.5309  0
878.13  5.5322  0
878.1   5.5335  0
878.07  5.5349  0
878.04  5.5362  0
878.01  5.5375  0
877.98  5.5388  0
877.95  5.5401  0
877.92  5.5415  0
877.89  5.5428  0
877.86  5.5441  0
877.83  5.5454  0
877.8   5.5467  0
877.77  5.5481  0
877.74  5.5494  0
877.71  5.5507  0
877.68  5.552   0
877.65  5.5533  0
877.62  5.5547  0
877.59  5.556   0
877.56  5.5573  0
877.53  5.5586  0
877.5   5.5599  0
877.47  5.5613  0
877.44  5.5626  0
877.41  5.5639  0
877.38  5.5652  0
877.35  5.5666  0
877.32  5.5679  0
877.29  5.5692  0
877.26  5.5705  0
877.23  5.5718  0
877.2   5.5732  0
877.17  5.5745  0
877.14  5.5758  0
877.11  5.5771  0
877.08  5.5784  0
877.05  5.5798  0
877.02  5.5811  0
876.99  5.5824  0
876.96  5.5837  0
876.93  5.585   0
876.9   5.5864  0
876.87  5.5877  0
876.84  5.589   0
876.81  5.5903  0
876.78  5.5916  0
876.75  5.593   0
876.72  5.5943  0
876.69  5.5956  0
876.66  5.5969  0
876.63  5.5982  0
876.6   5.5996  0
876.57  5.6009  0
876.54  5.6022  0
876.51  5.6035  0
876.48  5.6049  0
876.45  5.6062  0
876.42  5.6075  0
876.39  5.6088  0
876.36  5.6101  0
876.33  5.6115  0
876.3   5.6128  0
876.27  5.6141  0
876.24  5.6154  0
876.21  5.6167  0
876.18  5.6181  0
876.15  5.6194  0
876.12  5.6207  0
876.09  5.622   0
876.06  5.6233  0
876.03  5.6247  0
876     5.626   0
875.97  5.6273  0
875.94  5.6286  0
875.91  5.6299  0
875.88  5.6313  0
875.85  5.6326  0
875.82  5.6339  0
875.79  5.6352  0
875.76  5.6365  0
875.73  5.6379  0
875.7   5.6392  0
875.67  5.6405  0
875.64  5.6418  0
875.61  5.6431  0
875.58  5.6445  0
875.55  5.6458  0
875.52  5.6471  0
875.49  5.6484  0
875.46  5.6498  0
875.43  5.6511  0
875.4   5.6524  0
875.37  5.6537  0
875.34  5.655   0
875.31  5.6564  0
875.28  5.6577  0
875.25  5.659   0
875.22  5.6603  0
875.19  5.6616  0
875.16  5.663   0
875.13  5.6643  0
875.1   5.6656  0
875.07  5.6669  0
875.04  5.6682  0
875.01  5.6696  0
874.98  5.6696  0
874.95  5.6691  0
874.92  5.6686  0
874.89  5.6681  0
874.86  5.6675  0
874.83  5.667   0
874.8   5.6665  0
874.77  5.6659  0
874.74  5.6654  0
874.71  5.6649  0
874.68  5.6643  0
874.65  5.6638  0
874.62  5.6633  0
874.59  5.6627  0
874.56  5.6622  0
874.53  5.6617  0
874.5   5.6611  0
874.47  5.6606  0
874.44  5.6601  0
874.41  5.6595  0
874.38  5.659   0
874.35  5.6585  0
874.32  5.658   0
874.29  5.6574  0
874.26  5.6569  0
874.23  5.6564  0
874.2   5.6558  0
874.17  5.6553  0
874.14  5.6548  0
874.11  5.6542  0
874.08  5.6537  0
874.05  5.6532  0
874.02  5.6526  0
873.99  5.6521  0
873.96  5.6516  0
873.93  5.651   0
873.9   5.6505  0
873.87  5.65    0
873.84  5.6494  0
873.81  5.6489  0
873.78  5.6484  0
873.75  5.6479  0
873.72  5.6473  0
873.69  5.6468  0
873.66  5.6463  0
873.63  5.6457  0
873.6   5.6452  0
873.57  5.6447  0
873.54  5.6441  0
873.51  5.6436  0
873.48  5.6431  0
873.45  5.6425  0
873.42  5.642   0
873.39  5.6415  0
873.36  5.6409  0
873.33  5.6404  0
873.3   5.6399  0
873.27  5.6393  0
873.24  5.6388  0
873.21  5.6383  0
873.18  5.6377  0
873.15  5.6372  0
873.12  5.6367  0
873.09  5.6362  0
873.06  5.6356  0
873.03  5.6351  0
873     5.6346  0
872.97  5.634   0
872.94  5.6335  0
872.91  5.633   0
872.88  5.6324  0
872.85  5.6319  0
872.82  5.6314  0
872.79  5.6308  0
872.76  5.6303  0
872.73  5.6298  0
872.7   5.6292  0
872.67  5.6287  0
872.64  5.6282  0
872.61  5.6276  0
872.58  5.6271  0
872.55  5.6266  0
872.52  5.6261  0
872.49  5.6255  0
872.46  5.625   0
872.43  5.6245  0
872.4   5.6239  0
872.37  5.6234  0
872.34  5.6229  0
872.31  5.6223  0
872.28  5.6218  0
872.25  5.6213  0
872.22  5.6207  0
872.19  5.6202  0
872.16  5.6197  0
872.13  5.6191  0
872.1   5.6186  0
872.07  5.6181  0
872.04  5.6175  0
872.01  5.617   0
871.98  5.6165  0
871.95  5.616   0
871.92  5.6154  0
871.89  5.6149  0
871.86  5.6144  0
871.83  5.6138  0
871.8   5.6133  0
871.77  5.6128  0
871.74  5.6122  0
871.71  5.6117  0
871.68  5.6112  0
871.65  5.6106  0
871.62  5.6101  0
871.59  5.6096  0
871.56  5.609   0
871.53  5.6085  0
871.5   5.608   0
871.47  5.6074  0
871.44  5.6069  0
871.41  5.6064  0
871.38  5.6059  0
871.35  5.6053  0
871.32  5.6048  0
871.29  5.6043  0
871.26  5.6037  0
871.23  5.6032  0
871.2   5.6027  0
871.17  5.6021  0
871.14  5.6016  0
871.11  5.6011  0
871.08  5.6005  0
871.05  5.6     0
871.02  5.5995  0
870.99  5.5989  0
870.96  5.5984  0
870.93  5.5979  0
870.9   5.5973  0
870.87  5.5968  0
870.84  5.5963  0
870.81  5.5958  0
870.78  5.5952  0
870.75  5.5947  0
870.72  5.5942  0
870.69  5.5936  0
870.66  5.5931  0
870.63  5.5926  0
870.6   5.592   0
870.57  5.5915  0
870.54  5.591   0
870.51  5.5904  0
870.48  5.5899  0
870.45  5.5894  0
870.42  5.5888  0
870.39  5.5883  0
870.36  5.5878  0
870.33  5.5872  0
870.3   5.5867  0
870.27  5.5862  0
870.24  5.5857  0
870.21  5.5851  0
870.18  5.5846  0
870.15  5.5841  0
870.12  5.5835  0
870.09  5.583   0
870.06  5.5825  0
870.03  5.5819  0
870     5.5814  0
869.97  5.5809  0
869.94  5.5803  0
869.91  5.5798  0
869.88  5.5793  0
869.85  5.5787  0
869.82  5.5782  0
869.79  5.5777  0
869.76  5.5771  0
869.73  5.5766  0
869.7   5.5761  0
869.67  5.5756  0
869.64  5.575   0
869.61  5.5745  0
869.58  5.574   0
869.55  5.5734  0
869.52  5.5729  0
869.49  5.5724  0
869.46  5.5718  0
869.43  5.5713  0
869.4   5.5708  0
869.37  5.5702  0
869.34  5.5697  0
869.31  5.5692  0
869.28  5.5686  0
869.25  5.5681  0
869.22  5.5676  0
869.19  5.567   0
869.16  5.5665  0
869.13  5.566   0
869.1   5.5655  0
869.07  5.5649  0
869.04  5.5644  0
869.01  5.5639  0
868.98  5.5633  0
868.95  5.5628  0
868.92  5.5623  0
868.89  5.5617  0
868.86  5.5612  0
868.83  5.5607  0
868.8   5.5601  0
868.77  5.5596  0
868.74  5.5591  0
868.71  5.5585  0
868.68  5.558   0
868.65  5.5575  0
868.62  5.5569  0
868.59  5.5564  0
868.56  5.5559  0
868.53  5.5554  0
868.5   5.5548  0
868.47  5.5543  0
868.44  5.5538  0
868.41  5.5532  0
868.38  5.5527  0
868.35  5.5522  0
868.32  5.5516  0
868.29  5.5511  0
868.26  5.5506  0
868.23  5.55    0
868.2   5.5495  0
868.17  5.549   0
868.14  5.5484  0
868.11  5.5479  0
868.08  5.5474  0
868.05  5.5468  0
868.02  5.5463  0
867.99  5.5458  0
867.96  5.5453  0
867.93  5.5447  0
867.9   5.5442  0
867.87  5.5437  0
867.84  5.5431  0
867.81  5.5426  0
867.78  5.5421  0
867.75  5.5415  0
867.72  5.541   0
867.69  5.5405  0
867.66  5.5399  0
867.63  5.5394  0
867.6   5.5389  0
867.57  5.5383  0
867.54  5.5378  0
867.51  5.5373  0
867.48  5.5367  0
867.45  5.5362  0
867.42  5.5357  0
867.39  5.5352  0
867.36  5.5346  0
867.33  5.5341  0
867.3   5.5336  0
867.27  5.533   0
867.24  5.5325  0
867.21  5.532   0
867.18  5.5314  0
867.15  5.5309  0
867.12  5.5304  0
867.09  5.5298  0
867.06  5.5293  0
867.03  5.5288  0
867     5.5282  0
866.97  5.5277  0
866.94  5.5272  0
866.91  5.5266  0
866.88  5.5261  0
866.85  5.5256  0
866.82  5.5251  0
866.79  5.5245  0
866.76  5.524   0
866.73  5.5235  0
866.7   5.5229  0
866.67  5.5224  0
866.64  5.5219  0
866.61  5.5213  0
866.58  5.5208  0
866.55  5.5203  0
866.52  5.5197  0
866.49  5.5192  0
866.46  5.5187  0
866.43  5.5181  0
866.4   5.5176  0
866.37  5.5171  0
866.34  5.5165  0
866.31  5.516   0
866.28  5.5155  0
866.25  5.5149  0
866.22  5.5144  0
866.19  5.5139  0
866.16  5.5134  0
866.13  5.5128  0
866.1   5.5123  0
866.07  5.5118  0
866.04  5.5112  0
866.01  5.5107  0
865.98  5.5102  0
865.95  5.5096  0
865.92  5.5091  0
865.89  5.5086  0
865.86  5.508   0
865.83  5.5075  0
865.8   5.507   0
865.77  5.5064  0
865.74  5.5059  0
865.71  5.5054  0
865.68  5.5048  0
865.65  5.5043  0
865.62  5.5038  0
865.59  5.5033  0
865.56  5.5027  0
865.53  5.5022  0
865.5   5.5017  0
865.47  5.5011  0
865.44  5.5006  0
865.41  5.5001  0
865.38  5.4995  0
865.35  5.499   0
865.32  5.4985  0
865.29  5.4979  0
865.26  5.4974  0
865.23  5.4969  0
865.2   5.4963  0
865.17  5.4958  0
865.14  5.4953  0
865.11  5.4947  0
865.08  5.4942  0
865.05  5.4937  0
865.02  5.4932  0
864.99  5.4926  0
864.96  5.4921  0
864.93  5.4916  0
864.9   5.491   0
864.87  5.4905  0
864.84  5.49    0
864.81  5.4894  0
864.78  5.4889  0
864.75  5.4884  0
864.72  5.4878  0
864.69  5.4873  0
864.66  5.4868  0
864.63  5.4862  0
864.6   5.4857  0
864.57  5.4852  0
864.54  5.4846  0
864.51  5.4841  0
864.48  5.4836  0
864.45  5.4831  0
864.42  5.4825  0
864.39  5.482   0
864.36  5.4815  0
864.33  5.4809  0
864.3   5.4804  0
864.27  5.4799  0
864.24  5.4793  0
864.21  5.4788  0
864.18  5.4783  0
864.15  5.4777  0
864.12  5.4772  0
864.09  5.4767  0
864.06  5.4761  0
864.03  5.4756  0
864     5.4751  0
863.97  5.4745  0
863.94  5.474   0
863.91  5.4735  0
863.88  5.473   0
863.85  5.4724  0
863.82  5.4719  0
863.79  5.4714  0
863.76  5.4708  0
863.73  5.4703  0
863.7   5.4698  0
863.67  5.4692  0
863.64  5.4687  0
863.61  5.4682  0
863.58  5.4676  0
863.55  5.4671  0
863.52  5.4666  0
863.49  5.466   0
863.46  5.4655  0
863.43  5.465   0
863.4   5.4644  0
863.37  5.4639  0
863.34  5.4634  0
863.31  5.4629  0
863.28  5.4623  0
863.25  5.4618  0
863.22  5.4613  0
863.19  5.4607  0
863.16  5.4602  0
863.13  5.4597  0
863.1   5.4591  0
863.07  5.4586  0
863.04  5.4581  0
863.01  5.4575  0
862.98  5.457   0
862.95  5.4565  0
862.92  5.4559  0
862.89  5.4554  0
862.86  5.4549  0
862.83  5.4543  0
862.8   5.4538  0
862.77  5.4533  0
862.74  5.4528  0
862.71  5.4522  0
862.68  5.4517  0
862.65  5.4512  0
862.62  5.4506  0
862.59  5.4501  0
862.56  5.4496  0
862.53  5.449   0
862.5   5.4485  0
862.47  5.448   0
862.44  5.4474  0
862.41  5.4469  0
862.38  5.4464  0
862.35  5.4458  0
862.32  5.4453  0
862.29  5.4448  0
862.26  5.4442  0
862.23  5.4437  0
862.2   5.4432  0
862.17  5.4427  0
862.14  5.4421  0
862.11  5.4416  0
862.08  5.4411  0
862.05  5.4405  0
862.02  5.44    0
861.99  5.4395  0
861.96  5.4389  0
861.93  5.4384  0
861.9   5.4379  0
861.87  5.4373  0
861.84  5.4368  0
861.81  5.4363  0
861.78  5.4357  0
861.75  5.4352  0
861.72  5.4347  0
861.69  5.4341  0
861.66  5.4336  0
861.63  5.4331  0
861.6   5.4326  0
861.57  5.432   0
861.54  5.4315  0
861.51  5.431   0
861.48  5.4304  0
861.45  5.4299  0
861.42  5.4294  0
861.39  5.4288  0
861.36  5.4283  0
861.33  5.4278  0
861.3   5.4272  0
861.27  5.4267  0
861.24  5.4262  0
861.21  5.4256  0
861.18  5.4251  0
861.15  5.4246  0
861.12  5.424   0
861.09  5.4235  0
861.06  5.423   0
861.03  5.4225  0
861     5.4219  0
860.97  5.4214  0
860.94  5.4209  0
860.91  5.4203  0
860.88  5.4198  0
860.85  5.4193  0
860.82  5.4187  0
860.79  5.4182  0
860.76  5.4177  0
860.73  5.4171  0
860.7   5.4166  0
860.67  5.4161  0
860.64  5.4155  0
860.61  5.415   0
860.58  5.4145  0
860.55  5.4139  0
860.52  5.4134  0
860.49  5.4129  0
860.46  5.4124  0
860.43  5.4118  0
860.4   5.4113  0
860.37  5.4108  0
860.34  5.4102  0
860.31  5.4097  0
860.28  5.4092  0
860.25  5.4086  0
860.22  5.4081  0
860.19  5.4076  0
860.16  5.407   0
860.13  5.4065  0
860.1   5.406   0
860.07  5.4054  0
860.04  5.4049  0
860.01  5.4044  0
859.98  5.4038  0
859.95  5.4033  0
859.92  5.4028  0
859.89  5.4023  0
859.86  5.4017  0
859.83  5.4012  0
859.8   5.4007  0
859.77  5.4001  0
859.74  5.3996  0
859.71  5.3991  0
859.68  5.3985  0
859.65  5.398   0
859.62  5.3975  0
859.59  5.3969  0
859.56  5.3964  0
859.53  5.3959  0
859.5   5.3953  0
859.47  5.3948  0
859.44  5.3943  0
859.41  5.3937  0
859.38  5.3932  0
859.35  5.3927  0
859.32  5.3922  0
859.29  5.3916  0
859.26  5.3911  0
859.23  5.3906  0
859.2   5.39    0
859.17  5.3895  0
859.14  5.389   0
859.11  5.3884  0
859.08  5.3879  0
859.05  5.3874  0
859.02  5.3868  0
858.99  5.3863  0
858.96  5.3858  0
858.93  5.3852  0
858.9   5.3847  0
858.87  5.3842  0
858.84  5.3836  0
858.81  5.3831  0
858.78  5.3826  0
858.75  5.382   0
858.72  5.3815  0
858.69  5.381   0
858.66  5.3805  0
858.63  5.3799  0
858.6   5.3794  0
858.57  5.3789  0
858.54  5.3783  0
858.51  5.3778  0
858.48  5.3773  0
858.45  5.3767  0
858.42  5.3762  0
858.39  5.3757  0
858.36  5.3751  0
858.33  5.3746  0
858.3   5.3741  0
858.27  5.3735  0
858.24  5.373   0
858.21  5.3725  0
858.18  5.3719  0
858.15  5.3714  0
858.12  5.3709  0
858.09  5.3704  0
858.06  5.3698  0
858.03  5.3693  0
858     5.3688  0
857.97  5.3682  0
857.94  5.3677  0
857.91  5.3672  0
857.88  5.3666  0
857.85  5.3661  0
857.82  5.3656  0
857.79  5.365   0
857.76  5.3645  0
857.73  5.364   0
857.7   5.3634  0
857.67  5.3629  0
857.64  5.3624  0
857.61  5.3618  0
857.58  5.3613  0
857.55  5.3608  0
857.52  5.3603  0
857.49  5.3597  0
857.46  5.3592  0
857.43  5.3587  0
857.4   5.3581  0
857.37  5.3576  0
857.34  5.3571  0
857.31  5.3565  0
857.28  5.356   0
857.25  5.3555  0
857.22  5.3549  0
857.19  5.3544  0
857.16  5.3539  0
857.13  5.3533  0
857.1   5.3528  0
857.07  5.3523  0
857.04  5.3517  0
857.01  5.3512  0
856.98  5.3507  0
856.95  5.3502  0
856.92  5.3496  0
856.89  5.3491  0
856.86  5.3486  0
856.83  5.348   0
856.8   5.3475  0
856.77  5.347   0
856.74  5.3464  0
856.71  5.3459  0
856.68  5.3454  0
856.65  5.3448  0
856.62  5.3443  0
856.59  5.3438  0
856.56  5.3432  0
856.53  5.3427  0
856.5   5.3422  0
856.47  5.3416  0
856.44  5.3411  0
856.41  5.3406  0
856.38  5.3401  0
856.35  5.3395  0
856.32  5.339   0
856.29  5.3385  0
856.26  5.3379  0
856.23  5.3374  0
856.2   5.3369  0
856.17  5.3363  0
856.14  5.3358  0
856.11  5.3353  0
856.08  5.3347  0
856.05  5.3342  0
856.02  5.3337  0
855.99  5.3331  0
855.96  5.3326  0
855.93  5.3321  0
855.9   5.3315  0
855.87  5.331   0
855.84  5.3305  0
855.81  5.33    0
855.78  5.3294  0
855.75  5.3289  0
855.72  5.3284  0
855.69  5.3278  0
855.66  5.3273  0
855.63  5.3268  0
855.6   5.3262  0
855.57  5.3257  0
855.54  5.3252  0
855.51  5.3246  0
855.48  5.3241  0
855.45  5.3236  0
855.42  5.323   0
855.39  5.3225  0
855.36  5.322   0
855.33  5.3214  0
855.3   5.3209  0
855.27  5.3204  0
855.24  5.3199  0
855.21  5.3193  0
855.18  5.3188  0
855.15  5.3183  0
855.12  5.3177  0
855.09  5.3172  0
855.06  5.3167  0
855.03  5.3161  0
855     5.3156  0
854.97  5.3151  0
854.94  5.3145  0
854.91  5.314   0
854.88  5.3135  0
854.85  5.3129  0
854.82  5.3124  0
854.79  5.3119  0
854.76  5.3113  0
854.73  5.3108  0
854.7   5.3103  0
854.67  5.3098  0
854.64  5.3092  0
854.61  5.3087  0
854.58  5.3082  0
854.55  5.3076  0
854.52  5.3071  0
854.49  5.3066  0
854.46  5.306   0
854.43  5.3055  0
854.4   5.305   0
854.37  5.3044  0
854.34  5.3039  0
854.31  5.3034  0
854.28  5.3028  0
854.25  5.3023  0
854.22  5.3018  0
854.19  5.3012  0
854.16  5.3007  0
854.13  5.3002  0
854.1   5.2997  0
854.07  5.2991  0
854.04  5.2986  0
854.01  5.2981  0
853.98  5.2975  0
853.95  5.297   0
853.92  5.2965  0
853.89  5.2959  0
853.86  5.2954  0
853.83  5.2949  0
853.8   5.2943  0
853.77  5.2938  0
853.74  5.2933  0
853.71  5.2927  0
853.68  5.2922  0
853.65  5.2917  0
853.62  5.2911  0
853.59  5.2906  0
853.56  5.2901  0
853.53  5.2896  0
853.5   5.289   0
853.47  5.2885  0
853.44  5.288   0
853.41  5.2874  0
853.38  5.2869  0
853.35  5.2864  0
853.32  5.2858  0
853.29  5.2853  0
853.26  5.2848  0
853.23  5.2842  0
853.2   5.2837  0
853.17  5.2832  0
853.14  5.2826  0
853.11  5.2821  0
853.08  5.2816  0
853.05  5.281   0
853.02  5.2805  0
852.99  5.28    0
852.96  5.2795  0
852.93  5.2789  0
852.9   5.2784  0
852.87  5.2779  0
852.84  5.2773  0
852.81  5.2768  0
852.78  5.2763  0
852.75  5.2757  0
852.72  5.2752  0
852.69  5.2747  0
852.66  5.2741  0
852.63  5.2736  0
852.6   5.2731  0
852.57  5.2725  0
852.54  5.272   0
852.51  5.2715  0
852.48  5.2709  0
852.45  5.2704  0
852.42  5.2699  0
852.39  5.2694  0
852.36  5.2688  0
852.33  5.2683  0
852.3   5.2678  0
852.27  5.2672  0
852.24  5.2667  0
852.21  5.2662  0
852.18  5.2656  0
852.15  5.2651  0
852.12  5.2646  0
852.09  5.264   0
852.06  5.2635  0
852.03  5.263   0
852     5.2624  0
851.97  5.2619  0
851.94  5.2614  0
851.91  5.2608  0
851.88  5.2603  0
851.85  5.2598  0
851.82  5.2593  0
851.79  5.2587  0
851.76  5.2582  0
851.73  5.2577  0
851.7   5.2571  0
851.67  5.2566  0
851.64  5.2561  0
851.61  5.2555  0
851.58  5.255   0
851.55  5.2545  0
851.52  5.2539  0
851.49  5.2534  0
851.46  5.2529  0
851.43  5.2523  0
851.4   5.2518  0
851.37  5.2513  0
851.34  5.2507  0
851.31  5.2502  0
851.28  5.2497  0
851.25  5.2492  0
851.22  5.2486  0
851.19  5.2481  0
851.16  5.2476  0
851.13  5.247   0
851.1   5.2465  0
851.07  5.246   0
851.04  5.2454  0
851.01  5.2449  0
850.98  5.2444  0
850.95  5.2438  0
850.92  5.2433  0
850.89  5.2428  0
850.86  5.2422  0
850.83  5.2417  0
850.8   5.2412  0
850.77  5.2406  0
850.74  5.2401  0
850.71  5.2396  0
850.68  5.239   0
850.65  5.2385  0
850.62  5.238   0
850.59  5.2375  0
850.56  5.2369  0
850.53  5.2364  0
850.5   5.2359  0
850.47  5.2353  0
850.44  5.2348  0
850.41  5.2343  0
850.38  5.2337  0
850.35  5.2332  0
850.32  5.2327  0
850.29  5.2321  0
850.26  5.2316  0
850.23  5.2311  0
850.2   5.2305  0
850.17  5.23    0
850.14  5.2295  0
850.11  5.2289  0
850.08  5.2284  0
850.05  5.2279  0
850.02  5.2274  0
849.99  5.2268  0
849.96  5.2263  0
849.93  5.2258  0
849.9   5.2252  0
849.87  5.2247  0
849.84  5.2242  0
849.81  5.2236  0
849.78  5.2231  0
849.75  5.2226  0
849.72  5.222   0
849.69  5.2215  0
849.66  5.221   0
849.63  5.2204  0
849.6   5.2199  0
849.57  5.2194  0
849.54  5.2188  0
849.51  5.2183  0
849.48  5.2178  0
849.45  5.2173  0
849.42  5.2167  0
849.39  5.2162  0
849.36  5.2157  0
849.33  5.2151  0
849.3   5.2146  0
849.27  5.2141  0
849.24  5.2135  0
849.21  5.213   0
849.18  5.2125  0
849.15  5.2119  0
849.12  5.2114  0
849.09  5.2109  0
849.06  5.2103  0
849.03  5.2098  0
849     5.2093  0
848.97  5.2087  0
848.94  5.2082  0
848.91  5.2077  0
848.88  5.2072  0
848.85  5.2066  0
848.82  5.2061  0
848.79  5.2056  0
848.76  5.205   0
848.73  5.2045  0
848.7   5.204   0
848.67  5.2034  0
848.64  5.2029  0
848.61  5.2024  0
848.58  5.2018  0
848.55  5.2013  0
848.52  5.2008  0
848.49  5.2002  0
848.46  5.1997  0
848.43  5.1992  0
848.4   5.1986  0
848.37  5.1981  0
848.34  5.1976  0
848.31  5.1971  0
848.28  5.1965  0
848.25  5.196   0
848.22  5.1955  0
848.19  5.1949  0
848.16  5.1944  0
848.13  5.1939  0
848.1   5.1933  0
848.07  5.1928  0
848.04  5.1923  0
848.01  5.1917  0
847.98  5.1912  0
847.95  5.1907  0
847.92  5.1901  0
847.89  5.1896  0
847.86  5.1891  0
847.83  5.1885  0
847.8   5.188   0
847.77  5.1875  0
847.74  5.187   0
847.71  5.1864  0
847.68  5.1859  0
847.65  5.1854  0
847.62  5.1848  0
847.59  5.1843  0
847.56  5.1838  0
847.53  5.1832  0
847.5   5.1827  0
847.47  5.1822  0
847.44  5.1816  0
847.41  5.1811  0
847.38  5.1806  0
847.35  5.18    0
847.32  5.1795  0
847.29  5.179   0
847.26  5.1784  0
847.23  5.1779  0
847.2   5.1774  0
847.17  5.1769  0
847.14  5.1763  0
847.11  5.1758  0
847.08  5.1753  0
847.05  5.1747  0
847.02  5.1742  0
846.99  5.1737  0
846.96  5.1731  0
846.93  5.1726  0
846.9   5.1721  0
846.87  5.1715  0
846.84  5.171   0
846.81  5.1705  0
846.78  5.1699  0
846.75  5.1694  0
846.72  5.1689  0
846.69  5.1683  0
846.66  5.1678  0
846.63  5.1673  0
846.6   5.1668  0
846.57  5.1662  0
846.54  5.1657  0
846.51  5.1652  0
846.48  5.1646  0
846.45  5.1641  0
846.42  5.1636  0
846.39  5.163   0
846.36  5.1625  0
846.33  5.162   0
846.3   5.1614  0
846.27  5.1609  0
846.24  5.1604  0
846.21  5.1598  0
846.18  5.1593  0
846.15  5.1588  0
846.12  5.1582  0
846.09  5.1577  0
846.06  5.1572  0
846.03  5.1567  0
846     5.1561  0
845.97  5.1556  0
845.94  5.1551  0
845.91  5.1545  0
845.88  5.154   0
845.85  5.1535  0
845.82  5.1529  0
845.79  5.1524  0
845.76  5.1519  0
845.73  5.1513  0
845.7   5.1508  0
845.67  5.1503  0
845.64  5.1497  0
845.61  5.1492  0
845.58  5.1487  0
845.55  5.1481  0
845.52  5.1476  0
845.49  5.1471  0
845.46  5.1466  0
845.43  5.146   0
845.4   5.1455  0
845.37  5.145   0
845.34  5.1444  0
845.31  5.1439  0
845.28  5.1434  0
845.25  5.1428  0
845.22  5.1423  0
845.19  5.1418  0
845.16  5.1412  0
845.13  5.1407  0
845.1   5.1402  0
845.07  5.1396  0
845.04  5.1391  0
845.01  5.1386  0
825     4.784   0
789.36  4.093   0
775     3.868   0
770.41  3.807   0
765.15  3.73    0
725     3.173   0
703.36  2.897   0
675     2.641   0
629.73  2.079   0
625     2.076   0
609.76  1.888   0
584.33  1.662   0
575     1.62    0
554.37  1.419   0
525     1.199   0
475     0.9739  0
465.22  0.8387  0
425     0.6163  0
375     0.3984  0
368.07  0.4152  0
325     0.3077  0
303.78  0.2334  0
303.31  0.2324  0
284.15  0.1913  0
275     0.1676  0
256.3   0.1405  0
225     0.1007  0
175     0.0483  0
125     0.0169  0
75      0.0024  0
41      0       0
27.5    0       0
19.5    0       0
